timestamp,ekf_x,ekf_y,ekf_yaw,gt_x,gt_y,gt_yaw,gt_vx,gt_vy,gnss_x,gnss_y,imu_yaw_rate,imu_accel_x,odom_velocity,gnss_available,lead_x,lead_y
1773224647.937169,0.1384,0.5411,-0.0001,9.9478,0.1017,0.0057,0.1933,0.0011,10.0239,-0.5985,0.001561,0.154552,0.1934,True,61.8600,0.0000
1773224648.036853,0.1538,0.5540,-0.0002,9.9375,0.0732,-0.0083,-0.0189,0.0002,10.0239,-0.5985,0.003069,0.264164,0.0189,True,62.4000,0.0000
1773224648.139028,0.3146,1.6553,0.0007,9.9616,0.0023,0.0031,0.1031,0.0003,10.1791,0.6540,-0.001404,0.258019,0.1031,True,62.7600,0.0000
1773224648.245431,0.3188,1.7371,0.0007,10.0229,0.0424,0.0044,-0.0109,-0.0000,10.1791,0.6540,-0.010789,0.301708,0.0109,True,63.3000,0.0000
1773224648.339132,0.3241,1.8066,0.0008,10.0619,-0.0661,-0.0041,0.0767,-0.0003,7.1349,-1.0330,-0.004420,0.249436,0.0767,True,63.9000,0.0000
1773224648.435638,-0.9817,1.4342,-0.0001,10.0619,-0.0661,-0.0041,0.0767,-0.0003,7.1349,-1.0330,-0.004420,0.249436,0.0767,True,63.9000,0.0000
1773224648.535557,0.2263,1.3696,-0.0010,10.0777,0.0487,0.0089,0.2892,0.0026,11.2625,-0.8684,0.005362,0.341733,0.2892,True,64.9200,0.0000
1773224648.636174,0.2423,1.3974,-0.0007,9.9723,0.0503,0.0005,0.0825,0.0000,11.2625,-0.8684,0.000770,0.509861,0.0825,True,65.3400,0.0000
1773224648.736334,0.2489,1.4101,-0.0006,10.0321,0.0346,-0.0023,0.3729,-0.0009,9.5272,-0.0398,-0.003669,0.516038,0.3729,True,65.4600,0.0000
1773224648.835927,0.1018,1.9208,0.0016,10.1399,0.0011,0.0027,0.1504,0.0004,9.5272,-0.0398,0.002076,0.638587,0.1504,True,66.4200,0.0000
1773224648.935584,-0.3630,2.0249,0.0020,10.1419,0.0276,-0.0032,0.3930,-0.0013,8.7238,-0.1031,0.004095,0.544020,0.3930,True,67.0200,0.0000
1773224649.036866,-0.3258,2.1101,0.0019,10.2091,-0.0002,0.0053,0.3737,0.0020,8.7238,-0.1031,-0.006862,0.662734,0.3737,True,67.6200,0.0000
1773224649.146387,0.6628,1.2861,-0.0105,10.1915,-0.0305,0.0007,0.5019,0.0003,11.4195,-1.3739,0.001787,0.594781,0.5019,True,68.1600,0.0000
1773224649.242504,0.6903,1.2622,-0.0106,10.2736,0.0404,-0.0072,0.3661,-0.0026,11.4195,-1.3739,-0.002324,0.647174,0.3661,True,68.3400,0.0000
1773224649.335831,0.7694,-0.0208,-0.0335,10.3999,-0.0012,0.0020,0.6194,0.0012,10.4542,-2.8340,-0.001475,0.781248,0.6194,True,69.0000,0.0000
1773224649.435452,0.8283,-0.2272,-0.0333,10.3703,0.0191,0.0042,0.8543,0.0036,10.4542,-2.8340,-0.000997,0.783846,0.8543,True,69.9600,0.0000
1773224649.537133,0.2567,0.3402,-0.0141,10.3795,-0.0633,-0.0010,0.5970,-0.0006,9.1864,-1.2982,0.004078,0.948927,0.5970,True,70.5600,0.0000
1773224649.635603,0.3393,0.2384,-0.0139,10.4814,-0.0376,0.0094,0.8240,0.0078,9.1864,-1.2982,0.001585,0.951061,0.8240,True,71.1600,0.0000
1773224649.736963,0.8949,0.7650,0.0066,10.5405,-0.0585,-0.0012,0.7758,-0.0009,11.1032,-0.9567,0.006305,1.058236,0.7758,True,71.7600,0.0000
1773224649.835824,0.9874,0.7473,0.0068,10.7167,-0.0080,-0.0007,0.9355,-0.0007,11.1032,-0.9567,-0.006243,0.959176,0.9355,True,72.3600,0.0000
1773224649.938040,0.6886,2.9562,0.0934,10.8213,0.0069,0.0001,1.2233,0.0001,9.8826,2.0727,0.009241,1.120065,1.2233,True,72.9000,0.0000
1773224650.046610,0.7808,3.2245,0.0939,10.8666,-0.0027,0.0076,1.2547,0.0096,9.8826,2.0727,-0.000564,1.083636,1.2548,True,73.3200,0.0000
1773224650.170887,0.8607,3.4400,0.0944,11.0496,0.0289,0.0007,1.2612,0.0009,10.1078,-0.2778,0.010170,1.187216,1.2612,True,73.7400,0.0000
1773224650.236562,0.7116,2.4937,0.0421,11.0802,0.1070,0.0006,1.3274,0.0008,10.1078,-0.2778,0.003525,1.177806,1.3274,True,73.8600,0.0000
1773224650.344033,1.1264,3.0109,0.0601,11.1939,-0.0269,0.0017,1.4463,0.0025,10.9904,1.0193,0.009433,1.300860,1.4463,True,74.6400,0.0000
1773224650.448022,1.2807,3.1853,0.0607,11.2819,0.0579,-0.0128,1.3659,-0.0175,10.9904,1.0193,0.002433,1.281023,1.3660,True,74.8800,0.0000
1773224650.536592,1.4144,3.3592,0.0605,11.2963,-0.0200,-0.0033,1.6185,-0.0054,8.4195,-1.2135,-0.002135,1.367334,1.6185,True,75.0000,0.0000
1773224650.638926,0.2174,1.8081,-0.0600,11.3539,-0.0052,0.0004,1.6786,0.0006,8.4195,-1.2135,0.000982,1.347991,1.6786,True,75.0600,0.0000
1773224650.737501,0.2704,1.7962,-0.0600,11.4303,0.0337,-0.0069,1.7315,-0.0119,8.4195,-1.2135,0.001931,1.374069,1.7315,True,75.1800,0.0000
1773224650.841538,0.4334,1.7599,-0.0594,11.4426,0.0978,0.0057,1.6581,0.0095,17.0708,-0.5462,-0.002125,1.389794,1.6582,True,75.4800,0.0000
1773224650.936289,3.8811,1.6120,-0.0583,11.5793,0.0339,-0.0138,1.7896,-0.0246,12.5840,-1.8673,0.001375,1.361907,1.7898,True,75.7800,0.0000
1773224651.049528,3.6830,0.6789,-0.1325,11.7921,0.0253,0.0006,1.9272,0.0011,12.5840,-1.8673,0.006637,1.363410,1.9272,True,76.3200,0.0000
1773224651.142631,2.9682,0.8175,-0.1121,11.9435,0.0524,0.0028,2.0226,0.0057,11.4431,-1.0276,-0.000165,1.378209,2.0227,True,76.8000,0.0000
1773224651.237277,3.0511,0.7677,-0.1119,12.0910,-0.0489,-0.0022,2.1833,-0.0048,11.4431,-1.0276,0.004167,1.544658,2.1833,True,76.9800,0.0000
1773224651.341336,3.2986,0.6272,-0.1115,12.3672,-0.0011,-0.0034,2.4163,-0.0083,11.6144,-1.3802,0.000210,1.585052,2.4163,True,77.7000,0.0000
1773224651.436610,2.7543,0.6357,-0.1127,12.4239,0.0493,0.0068,2.1754,0.0147,11.6144,-1.3802,0.003831,1.548580,2.1755,True,77.9400,0.0000
1773224651.538156,2.9276,0.5392,-0.1125,12.5559,-0.0181,-0.0027,2.5911,-0.0070,10.8163,1.1349,0.000055,1.609392,2.5911,True,78.3000,0.0000
1773224651.646503,3.1525,0.4206,-0.1121,12.6934,-0.0575,-0.0029,2.6627,-0.0078,10.8163,1.1349,0.006926,1.587474,2.6627,True,78.7800,0.0000
1773224651.747359,2.6417,2.2766,0.0963,12.8980,-0.0311,-0.0017,2.8620,-0.0048,14.4371,4.5038,0.003093,1.688760,2.8620,True,79.5000,0.0000
1773224651.847454,3.8817,4.8641,0.2315,13.2112,-0.0210,-0.0078,2.9693,-0.0232,14.4371,4.5038,-0.000953,1.836152,2.9694,True,79.9200,0.0000
1773224651.936025,4.0986,5.0972,0.2315,13.4454,0.0308,0.0112,3.0264,0.0340,12.0412,-1.7397,-0.001982,1.922994,3.0266,True,80.2800,0.0000
1773224652.041025,3.4630,2.5587,-0.0225,13.7303,-0.0802,-0.0024,3.3159,-0.0080,12.0412,-1.7397,-0.000642,1.994499,3.3159,True,80.7600,0.0000
1773224652.156389,3.5711,2.5670,-0.0222,13.7303,-0.0802,-0.0024,3.3159,-0.0080,12.0412,-1.7397,-0.001915,1.979025,3.3159,True,81.1200,0.0000
1773224652.267115,3.8645,2.5908,-0.0211,13.8166,0.0444,0.0086,3.2678,0.0282,16.6739,1.3545,-0.003356,1.835069,3.2679,True,81.6600,0.0000
1773224652.352618,5.6233,3.1154,0.0277,13.9942,-0.0620,0.0003,3.3709,0.0010,16.6739,1.3545,0.009576,1.989670,3.3709,True,82.2000,0.0000
1773224652.441658,5.8340,3.1561,0.0278,14.2341,0.0407,0.0083,3.7305,0.0309,17.3860,-1.0712,0.007296,2.055773,3.7306,True,82.6200,0.0000
1773224652.540682,7.1032,1.9951,-0.1043,15.2561,-0.0363,-0.0005,4.0658,-0.0020,16.6548,0.6157,-0.000905,2.208300,4.0658,True,83.1000,0.0000
1773224652.637858,7.5082,2.3995,-0.0329,15.6048,0.0276,0.0086,4.3166,0.0370,16.6548,0.6157,-0.007832,2.264901,4.3168,True,83.7000,0.0000
1773224652.739844,7.9136,2.4048,-0.0325,15.8733,-0.0509,0.0038,4.4091,0.0166,16.7256,2.1889,0.007396,2.331244,4.4092,True,84.1800,0.0000
1773224652.837052,8.2140,3.5032,0.0362,16.1456,0.0300,-0.0011,4.8219,-0.0052,16.7256,2.1889,0.002816,2.385639,4.8219,True,85.0200,0.0000
1773224652.935884,7.7777,5.0789,0.2877,16.6114,-0.0616,0.0032,4.7325,0.0150,16.3044,3.9694,0.003060,2.440288,4.7325,True,85.5600,0.0000
1773224653.036340,8.1706,5.0075,0.0944,17.0455,0.0341,0.0001,4.9639,0.0006,16.3044,3.9694,-0.003986,2.491790,4.9639,True,85.8000,0.0000
1773224653.136925,6.2174,1.8349,-0.1730,17.5271,0.0198,-0.0032,5.1136,-0.0161,12.8115,-3.2617,0.006804,2.524016,5.1136,True,86.6400,0.0000
1773224653.235630,6.7464,1.7669,-0.1659,17.9114,0.0873,0.0006,5.3673,0.0031,12.8115,-3.2617,0.000106,2.617841,5.3673,True,87.2400,0.0000
1773224653.337031,6.1136,2.3429,-0.1278,18.4816,0.0335,-0.0087,5.7563,-0.0501,14.0803,0.9096,-0.001100,2.565444,5.7566,True,87.8400,0.0000
1773224653.435938,6.7000,2.2903,-0.1280,19.0581,-0.0142,-0.0084,5.9205,-0.0498,14.0803,0.9096,0.005643,2.505588,5.9208,True,88.4400,0.0000
1773224653.537228,7.4893,2.0401,-0.1539,19.6905,-0.0835,-0.0005,6.2301,-0.0030,17.1157,-0.2162,0.008740,2.479059,6.2301,True,89.0400,0.0000
1773224653.636559,8.1145,1.9616,-0.1555,20.2705,0.0211,-0.0067,6.4976,-0.0435,17.1157,-0.2162,-0.004645,2.471969,6.4978,True,89.6400,0.0000
1773224653.735854,8.5581,2.8316,-0.0106,20.9497,-0.0102,0.0086,6.6766,0.0574,17.7704,1.3805,0.002727,2.429274,6.6768,True,90.1800,0.0000
1773224653.836347,9.2235,2.8401,-0.0158,21.7333,-0.0028,-0.0021,6.9342,-0.0145,17.7704,1.3805,-0.003513,2.433542,6.9343,True,90.8400,0.0000
1773224653.936144,10.9855,2.7871,-0.0189,22.3597,0.0043,0.0044,7.0524,0.0313,21.6934,0.5857,0.001197,2.392535,7.0525,True,91.4400,0.0000
1773224654.037421,11.7264,2.7995,-0.0177,23.1406,0.0049,-0.0000,7.6206,-0.0001,21.6934,0.5857,-0.002409,2.386602,7.6206,True,91.9800,0.0000
1773224654.136960,12.9137,1.7657,-0.1843,23.8763,0.0065,-0.0014,7.5747,-0.0108,22.8062,-1.0699,-0.004076,2.452218,7.5747,True,92.6400,0.0000
1773224654.242174,13.6923,1.6595,-0.1808,24.7354,0.0902,0.0027,7.9852,0.0217,22.8062,-1.0699,0.004185,2.458714,7.9852,True,93.1200,0.0000
1773224654.335629,13.0871,1.5440,-0.2111,25.4693,0.0276,-0.0097,8.1123,-0.0788,20.9967,-0.4702,0.002034,2.301022,8.1127,True,93.7200,0.0000
1773224654.436160,13.8529,1.4126,-0.2114,26.0836,0.1169,-0.0018,8.3026,-0.0146,20.9967,-0.4702,0.006317,2.180221,8.3027,True,94.3200,0.0000
1773224654.536952,16.0447,3.4055,0.1003,27.0384,-0.0154,-0.0063,8.7308,-0.0550,26.7998,2.8167,0.000979,2.233182,8.7310,True,94.9200,0.0000
1773224654.635678,16.9094,3.5333,0.1275,27.9718,0.0252,-0.0064,8.7393,-0.0556,26.7998,2.8167,0.014201,2.047706,8.7395,True,95.5200,0.0000
1773224654.735884,18.2037,3.3971,0.1014,28.7984,0.0294,-0.0075,9.0579,-0.0678,28.1440,1.0560,-0.001175,2.002157,9.0582,True,96.1200,0.0000
1773224654.835894,19.1143,3.4826,0.1015,29.6341,-0.0204,0.0042,9.2966,0.0392,28.1440,1.0560,0.006362,1.849105,9.2967,True,96.7200,0.0000
1773224654.936140,20.4144,2.2073,-0.0766,30.6164,-0.0147,0.0025,9.3984,0.0238,30.1189,-1.0069,0.004392,1.848457,9.3984,True,97.3200,0.0000
1773224655.036595,21.3627,2.1560,-0.0765,31.5404,-0.1144,-0.0040,9.5172,-0.0385,30.1189,-1.0069,-0.005731,1.664451,9.5172,True,97.9200,0.0000
1773224655.135988,23.0180,1.9760,-0.0907,32.4852,-0.0239,0.0032,9.7076,0.0311,33.1105,-0.2246,-0.002301,1.553750,9.7076,True,98.5200,0.0000
1773224655.236500,23.9945,1.9112,-0.0907,33.3917,-0.0219,0.0013,9.9271,0.0126,33.1105,-0.2246,-0.002155,1.455461,9.9271,True,99.1200,0.0000
1773224655.335760,23.6234,4.6227,0.2479,34.4947,-0.0436,0.0068,10.1504,0.0688,31.5256,4.3867,0.000751,1.375155,10.1506,True,99.7200,0.0000
1773224655.436080,24.6106,4.8534,0.2526,35.5125,-0.0267,0.0091,10.0544,0.0912,31.5256,4.3867,0.009184,1.204489,10.0548,True,100.3200,0.0000
1773224655.535607,25.7082,4.1844,0.1805,36.4694,0.0447,-0.0037,10.3510,-0.0381,35.2355,-1.6174,-0.004542,1.165062,10.3511,True,100.9200,0.0000
1773224655.636474,26.7291,4.3469,0.1802,37.5638,-0.0561,0.0057,10.5216,0.0604,35.2355,-1.6174,0.004572,1.011488,10.5218,True,101.5200,0.0000
1773224655.737764,27.8537,4.6309,0.1914,38.5836,-0.0530,0.0042,10.4898,0.0439,37.6890,2.7654,0.009810,0.950346,10.4899,True,102.1200,0.0000
1773224655.835602,28.8999,4.8078,0.1912,39.6227,0.0305,-0.0084,10.5076,-0.0885,37.6890,2.7654,-0.002829,0.906277,10.5080,True,102.7200,0.0000
1773224655.936382,30.6626,3.4667,0.0616,40.6924,0.1367,0.0146,10.5581,0.1543,42.1255,-1.6617,-0.003309,0.764036,10.5592,True,103.3200,0.0000
1773224656.035675,31.7315,3.5229,0.0643,41.7251,-0.0428,0.0023,10.6882,0.0246,42.1255,-1.6617,0.006177,0.569335,10.6882,True,103.9200,0.0000
1773224656.136131,32.8849,2.8428,0.0022,42.7804,-0.0350,0.0066,10.6908,0.0705,42.5107,-0.4415,0.000686,0.516026,10.6910,True,104.5200,0.0000
1773224656.235852,33.9714,2.8179,0.0022,43.8949,-0.0587,0.0056,10.8882,0.0615,42.5107,-0.4415,0.000193,0.464848,10.8884,True,105.1200,0.0000
1773224656.336094,35.5664,3.3878,0.0456,44.8645,-0.0601,0.0121,10.8080,0.1305,46.6489,2.2008,0.007018,0.422560,10.8088,True,105.7200,0.0000
1773224656.437723,36.6681,3.4206,0.0459,46.0586,-0.0012,0.0074,10.8547,0.0807,46.6489,2.2008,-0.011116,0.281247,10.8550,True,106.3200,0.0000
1773224656.536572,37.5010,1.9747,-0.0504,47.1452,-0.0360,-0.0057,10.8495,-0.0616,46.0885,-2.3369,0.005357,0.196193,10.8497,True,106.9200,0.0000
1773224656.637204,38.5792,1.8737,-0.0501,48.1519,-0.0432,0.0015,11.0232,0.0162,46.0885,-2.3369,0.009155,0.081714,11.0232,True,107.5200,0.0000
1773224656.737126,40.4309,2.3933,-0.0163,49.2732,-0.0289,-0.0006,10.6358,-0.0062,51.6365,1.2066,0.002290,-0.090864,10.6358,True,108.0600,0.0000
1773224656.836000,41.3769,2.3539,-0.0161,50.3282,0.0175,0.0091,10.8570,0.0993,51.6365,1.2066,0.002104,-0.097781,10.8574,True,108.6600,0.0000
1773224656.937784,41.4572,1.7906,-0.0372,51.2923,-0.0281,0.0037,10.9480,0.0406,47.9479,-0.9953,0.011364,-0.276930,10.9481,True,109.2600,0.0000
1773224657.035562,42.5274,1.6930,-0.0368,52.4597,0.0543,0.0049,10.9419,0.0531,47.9479,-0.9953,0.003743,-0.382558,10.9420,True,109.8600,0.0000
1773224657.135649,43.4896,0.7031,-0.0637,53.6154,0.0788,0.0014,10.6138,0.0154,52.4417,-2.5903,0.003056,-0.400359,10.6138,True,110.4600,0.0000
1773224657.236101,44.5611,0.5167,-0.0633,54.5880,0.0066,0.0027,10.8197,0.0294,52.4417,-2.5903,0.006945,-0.611648,10.8198,True,111.0600,0.0000
1773224657.339546,45.6941,2.8951,-0.0402,55.8111,0.0071,0.0044,10.7888,0.0469,55.0093,3.8411,0.006633,-0.645585,10.7889,True,111.5400,0.0000
1773224657.438104,46.7398,2.9859,-0.0396,56.6149,0.0361,-0.0008,10.5785,-0.0086,55.0093,3.8411,0.002278,-0.748374,10.5786,True,112.2000,0.0000
1773224657.539756,47.6439,2.0804,-0.0279,57.6931,-0.0259,-0.0052,10.6154,-0.0553,56.7344,-1.2448,0.005309,-0.933661,10.6156,True,112.6800,0.0000
1773224657.635697,48.4615,2.0674,-0.0275,58.6899,0.0165,0.0048,10.5260,0.0509,56.7344,-1.2448,0.002719,-0.961854,10.5261,True,113.1600,0.0000
1773224657.760152,49.5315,2.0514,-0.0270,59.6276,-0.0055,0.0034,10.3480,0.0350,58.6485,0.9663,0.005903,-1.086942,10.3481,True,113.7600,0.0000
1773224657.837533,49.9919,2.5297,-0.0422,60.5069,0.0002,0.0019,10.2739,0.0190,58.6485,0.9663,0.001930,-1.086953,10.2739,True,113.9400,0.0000
1773224657.935543,51.8296,3.6525,-0.0935,61.3800,-0.0358,0.0027,10.1807,0.0270,61.6701,2.8591,0.010825,-1.267940,10.1807,True,114.9000,0.0000
1773224658.036067,52.8206,3.7848,-0.0918,62.3382,0.0017,0.0024,10.2042,0.0244,61.6701,2.8591,-0.006115,-1.328429,10.2042,True,115.5000,0.0000
1773224658.138224,52.9959,2.8162,0.0163,63.3607,0.0539,0.0025,9.8750,0.0243,60.1384,-0.5305,-0.003094,-1.380085,9.8750,True,116.1000,0.0000
1773224658.236076,53.9607,2.8265,0.0157,64.3663,0.0318,-0.0053,9.7533,-0.0516,60.1384,-0.5305,-0.001223,-1.265459,9.7534,True,116.7000,0.0000
1773224658.335432,56.7788,2.3136,0.0848,65.3648,-0.0342,0.0031,9.4550,0.0296,67.2913,0.0652,-0.003195,-1.376750,9.4551,True,117.3000,0.0000
1773224658.435827,57.7339,2.3000,0.0630,66.1874,-0.0495,-0.0044,9.4013,-0.0414,67.2913,0.0652,-0.002771,-1.253457,9.4014,True,117.9000,0.0000
1773224658.536190,57.9258,2.6118,-0.0067,67.1708,-0.0698,-0.0016,9.4090,-0.0153,66.4660,0.6473,0.003758,-1.154445,9.4090,True,118.5000,0.0000
1773224658.636252,58.8598,2.6258,-0.0065,68.2043,0.0204,0.0027,9.2039,0.0244,66.4660,0.6473,-0.001409,-1.093949,9.2039,True,119.1000,0.0000
1773224658.735811,60.2167,1.2693,0.0063,69.0610,-0.0304,0.0033,9.0349,0.0297,70.1528,-2.0470,-0.005686,-1.095838,9.0350,True,119.7000,0.0000
1773224658.838197,61.1301,1.3819,-0.0661,69.9533,-0.0254,-0.0013,9.1233,-0.0123,70.1528,-2.0470,0.002351,-0.947803,9.1233,True,120.2400,0.0000
1773224658.935662,61.5776,1.4287,-0.0667,70.8759,0.0051,0.0014,8.7829,0.0126,70.4722,-0.7014,-0.006401,-0.853523,8.7829,True,120.7800,0.0000
1773224659.036284,62.4302,1.4649,-0.0669,71.6942,-0.0272,-0.0022,8.9763,-0.0199,70.4722,-0.7014,-0.004129,-0.732214,8.9763,True,121.4400,0.0000
1773224659.150710,63.1481,1.4947,-0.0670,72.5346,-0.0296,0.0040,8.6535,0.0347,69.9434,-0.3989,-0.000105,-0.888312,8.6536,True,121.9200,0.0000
1773224659.239012,62.5952,1.6570,-0.0759,73.2740,-0.0121,-0.0080,8.6205,-0.0694,69.9434,-0.3989,-0.002557,-0.889022,8.6208,True,122.1600,0.0000
1773224659.337581,63.9273,0.6927,0.0272,74.0542,-0.0812,-0.0113,8.7915,-0.0991,73.6809,-2.2685,0.002528,-0.685712,8.7920,True,122.8200,0.0000
1773224659.436022,64.7818,0.7041,0.0047,74.9225,-0.0822,-0.0016,8.5018,-0.0139,73.6809,-2.2685,-0.000772,-0.764215,8.5018,True,123.6000,0.0000
1773224659.542188,65.8070,0.4153,0.0408,75.6383,0.0357,0.0026,8.5882,0.0222,75.3361,-1.9019,0.006339,-0.687645,8.5883,True,124.0800,0.0000
1773224659.640312,66.6627,0.3702,0.0418,76.5436,0.0259,0.0040,8.4345,0.0333,75.3361,-1.9019,-0.005242,-0.739283,8.4346,True,124.7400,0.0000
1773224659.735554,67.4720,0.7375,-0.0134,77.3477,-0.0624,-0.0012,8.5098,-0.0102,76.9388,-1.1159,-0.003406,-0.415828,8.5098,True,125.3400,0.0000
1773224659.835968,68.3180,0.7414,-0.0141,78.1645,-0.0551,-0.0002,8.2571,-0.0020,76.9388,-1.1159,-0.004978,-0.686488,8.2571,True,125.9400,0.0000
1773224659.935925,69.2409,1.8298,-0.1391,78.9405,-0.0800,0.0065,8.2711,0.0539,78.6500,0.4543,-0.002548,-0.584313,8.2713,True,126.5400,0.0000
1773224660.051462,70.0919,1.9353,-0.1343,79.4129,0.0098,-0.0062,8.1937,-0.0506,78.6500,0.4543,0.005222,-0.430343,8.1938,True,126.8400,0.0000
1773224660.145335,70.7724,2.0251,-0.1342,80.2196,0.0360,-0.0002,8.1747,-0.0017,77.8756,-1.4144,0.003034,-0.451189,8.1747,True,127.1400,0.0000
1773224660.236019,70.2055,1.1347,0.0065,80.7948,-0.0125,-0.0071,7.9984,-0.0571,77.8756,-1.4144,0.008581,-0.317691,7.9986,True,127.3800,0.0000
1773224660.356452,70.9890,1.1051,0.0068,81.4249,0.0569,0.0005,7.9487,0.0041,80.4953,-2.6816,0.002043,-0.328648,7.9487,True,127.7400,0.0000
1773224660.435726,71.9292,-0.0641,0.1183,82.0491,-0.0055,0.0010,7.8398,0.0077,80.4953,-2.6816,0.004197,-0.274619,7.8398,True,128.2200,0.0000
1773224660.541971,72.8306,-0.2325,0.1187,82.2651,-0.0293,-0.0011,8.0567,-0.0089,82.2818,1.1978,0.001589,-0.249893,8.0567,True,128.5200,0.0000
1773224660.648185,73.1261,1.8450,-0.0482,82.8683,-0.0562,0.0062,8.1387,0.0507,82.2818,1.1978,-0.005119,-0.344804,8.1389,True,128.9400,0.0000
1773224660.735531,74.9279,2.1455,-0.0702,83.4053,0.0245,-0.0096,7.9747,-0.0766,85.4506,0.2179,0.009923,-0.418915,7.9751,True,129.7800,0.0000
1773224660.835873,75.7487,2.2208,-0.0695,84.2033,0.0239,-0.0041,8.1967,-0.0334,85.4506,0.2179,-0.010407,-0.279223,8.1968,True,130.3800,0.0000
1773224660.935984,75.5860,1.6702,-0.0120,85.0352,-0.0280,-0.0019,7.9430,-0.0147,83.8836,-0.8935,-0.004965,-0.264025,7.9430,True,130.9800,0.0000
1773224661.035824,76.3860,1.6713,-0.0129,85.8277,-0.0856,0.0048,8.0055,0.0382,83.8836,-0.8935,0.002361,-0.464495,8.0055,True,131.5800,0.0000
1773224661.139203,76.7710,1.5915,-0.0050,86.6015,0.0259,-0.0055,7.8302,-0.0433,85.8127,-0.5775,0.010756,-0.304695,7.8304,True,132.1800,0.0000
1773224661.235767,77.5576,1.5792,-0.0046,87.3933,0.0093,0.0006,7.9452,0.0044,85.8127,-0.5775,-0.002947,-0.282411,7.9452,True,132.7800,0.0000
1773224661.341727,77.1386,2.6177,-0.0917,88.2757,0.0154,-0.0060,7.9443,-0.0480,85.1805,1.1383,0.001142,-0.190820,7.9445,True,133.3200,0.0000
1773224661.438371,77.9336,2.6841,-0.0796,88.9049,-0.0895,0.0041,7.7722,0.0316,85.1805,1.1383,-0.001579,-0.360272,7.7722,True,133.8000,0.0000
1773224661.555834,77.3870,2.2790,-0.0369,89.6240,0.0220,0.0036,8.0546,0.0286,85.2865,-0.1490,0.004982,-0.281121,8.0547,True,134.4000,0.0000
1773224661.636559,78.1328,2.3104,-0.0370,90.3874,-0.0103,0.0035,7.9885,0.0276,85.2865,-0.1490,-0.006080,-0.201206,7.9886,True,135.0600,0.0000
1773224661.744230,79.8040,0.7160,0.0821,91.1502,0.0150,-0.0008,7.8690,-0.0064,90.2686,-2.3789,0.003582,-0.274567,7.8690,True,135.4200,0.0000
1773224661.841937,80.4659,0.6115,0.0730,91.6860,-0.0605,-0.0007,7.8966,-0.0058,90.2686,-2.3789,0.000997,-0.193368,7.8966,True,135.6600,0.0000
1773224661.939665,81.2581,0.4517,0.0731,92.3520,-0.1368,0.0007,7.7095,0.0051,91.9505,1.8437,-0.002913,-0.252152,7.7095,True,136.1400,0.0000
1773224662.035979,82.6196,2.7138,-0.0784,92.8920,0.0680,-0.0073,7.8504,-0.0574,91.9505,1.8437,0.000275,-0.048568,7.8506,True,136.7400,0.0000
1773224662.139357,83.2471,2.7997,-0.0782,93.1391,0.0144,0.0011,7.9808,0.0087,93.0621,3.1492,-0.004687,-0.111394,7.9808,True,137.2200,0.0000
1773224662.236935,84.3282,4.5716,-0.1681,93.9065,0.0337,-0.0031,7.8065,-0.0243,93.0621,3.1492,-0.001066,-0.272163,7.8066,True,137.7600,0.0000
1773224662.338009,84.3573,2.4513,-0.0248,94.6628,0.0191,0.0050,7.7406,0.0389,93.0891,-1.2198,0.006323,-0.135450,7.7407,True,138.3600,0.0000
1773224662.436136,85.1239,2.4268,-0.0245,95.4729,-0.0141,0.0062,7.5740,0.0467,93.0891,-1.2198,0.007024,-0.111453,7.5742,True,138.9600,0.0000
1773224662.536853,86.5318,4.3510,-0.1150,96.2713,0.0222,0.0027,7.7477,0.0208,96.5796,3.5868,-0.007629,-0.146902,7.7477,True,139.5600,0.0000
1773224662.635560,87.3099,4.5353,-0.1152,97.0477,0.0504,0.0027,7.4782,0.0205,96.5796,3.5868,0.005950,-0.080905,7.4782,True,140.1600,0.0000
1773224662.748504,88.1947,3.1180,-0.0473,97.7154,0.0279,0.0059,7.9590,0.0474,97.8745,-0.0665,0.011200,-0.137202,7.9591,True,140.5800,0.0000
1773224662.836133,88.9683,3.1257,-0.0472,98.4618,-0.0534,-0.0059,7.6243,-0.0451,97.8745,-0.0665,0.006742,-0.115559,7.6245,True,141.3000,0.0000
1773224662.936458,89.6738,2.5353,-0.0209,99.3311,-0.0024,0.0044,7.5711,0.0330,99.1286,0.0472,-0.002120,-0.015268,7.5711,True,141.9000,0.0000
1773224663.041941,90.4289,2.4677,-0.0207,100.0251,-0.0264,-0.0073,7.6740,-0.0564,99.1286,0.0472,-0.005311,-0.078543,7.6742,True,142.3800,0.0000
1773224663.136046,92.6267,3.7253,-0.0750,100.6918,-0.0625,-0.0017,7.8026,-0.0133,103.7558,2.3856,-0.005743,-0.038822,7.8026,True,143.0400,0.0000
1773224663.235734,93.4022,3.8344,-0.0750,101.4461,-0.0742,0.0062,7.7343,0.0477,103.7558,2.3856,0.003197,-0.148696,7.7345,True,143.6400,0.0000
1773224663.335495,93.3385,3.1082,-0.0442,102.2156,-0.0636,-0.0004,7.5585,-0.0031,101.7213,0.4829,-0.010142,-0.023480,7.5585,True,144.2400,0.0000
1773224663.437694,94.1064,3.1003,-0.0439,103.0704,0.0638,0.0029,7.5316,0.0217,101.7213,0.4829,-0.000181,-0.062772,7.5316,True,144.8400,0.0000
1773224663.536594,95.1691,2.6285,-0.0290,103.7523,0.0421,-0.0063,7.4631,-0.0468,105.0422,0.2544,-0.000908,-0.039812,7.4632,True,145.4400,0.0000
1773224663.635875,95.9350,2.5573,-0.0292,104.4941,0.0397,-0.0009,7.7014,-0.0068,105.0422,0.2544,-0.004356,-0.083208,7.7014,True,146.0400,0.0000
1773224663.737050,96.2295,1.7274,-0.0052,105.2495,-0.0450,-0.0043,7.6351,-0.0331,105.2287,-0.7958,-0.000383,0.129186,7.6352,True,146.6400,0.0000
1773224663.835703,96.9786,1.5496,-0.0050,105.9528,0.0286,0.0126,7.4703,0.0941,105.2287,-0.7958,0.003431,-0.048560,7.4709,True,147.2400,0.0000
1773224663.936343,95.3383,3.5956,-0.0625,106.8345,-0.0199,0.0059,7.5364,0.0446,102.0638,2.7896,-0.001008,-0.016624,7.5366,True,147.8400,0.0000
1773224664.035988,96.1171,3.7142,-0.0623,107.4703,0.0398,0.0071,7.7634,0.0551,102.0638,2.7896,0.005701,-0.023861,7.7636,True,148.4400,0.0000
1773224664.135750,98.1791,3.1262,-0.0466,108.3598,-0.0525,-0.0014,7.6668,-0.0104,109.2146,0.5337,0.005156,-0.000263,7.6668,True,149.0400,0.0000
1773224664.254404,98.9523,3.1600,-0.0462,108.9939,-0.0446,0.0027,7.7579,0.0207,109.2146,0.5337,0.002699,-0.014363,7.7579,True,149.5200,0.0000
1773224664.335869,99.1355,1.1362,0.0004,109.7130,0.0980,0.0045,7.6212,0.0345,108.0259,-2.1639,0.005785,0.092475,7.6213,True,150.1800,0.0000
1773224664.435893,99.9086,0.8907,0.0008,110.5133,-0.0086,0.0003,7.6912,0.0024,108.0259,-2.1639,-0.002895,0.018639,7.6912,True,150.7800,0.0000
1773224664.535648,100.6205,2.1711,-0.0305,111.2685,-0.1032,-0.0021,7.4899,-0.0160,110.0615,0.9608,-0.000407,0.009018,7.4900,True,151.3800,0.0000
1773224664.635705,101.3762,2.1341,-0.0304,112.0180,0.0278,-0.0013,7.7193,-0.0102,110.0615,0.9608,-0.001301,0.066450,7.7194,True,151.9800,0.0000
1773224664.736581,101.9516,2.0419,-0.0296,112.8714,-0.0318,-0.0114,7.6401,-0.0873,111.2496,-0.1041,-0.003825,-0.096587,7.6406,True,152.5800,0.0000
1773224664.835552,102.7052,1.9974,-0.0296,113.5429,-0.0703,0.0044,7.6728,0.0335,111.2496,-0.1041,0.001291,-0.084440,7.6729,True,153.1800,0.0000
1773224664.936240,104.3144,0.5780,-0.0045,114.3563,-0.0280,-0.0030,7.5148,-0.0226,114.8441,-2.3327,-0.004883,-0.129848,7.5149,True,153.7800,0.0000
1773224665.037065,105.0725,0.3496,-0.0049,115.0963,0.0730,0.0069,7.5871,0.0525,114.8441,-2.3327,-0.002174,-0.182419,7.5873,True,154.3800,0.0000
1773224665.135672,105.9603,1.7988,-0.0452,115.7078,0.0364,-0.0036,7.4619,-0.0268,115.4864,0.7136,-0.004517,0.041124,7.4620,True,154.9800,0.0000
1773224665.235658,106.7267,1.7958,-0.0450,116.5698,0.0337,-0.0010,7.6950,-0.0080,115.4864,0.7136,0.006353,0.104753,7.6950,True,155.5800,0.0000
1773224665.335693,109.0585,3.6233,-0.0953,117.4378,0.0024,0.0000,7.5997,0.0002,120.2356,2.4425,-0.002762,-0.020527,7.5997,True,156.1800,0.0000
1773224665.435603,109.8277,3.8625,-0.0953,118.1394,-0.0514,-0.0032,7.6377,-0.0242,120.2356,2.4425,0.001510,0.125151,7.6377,True,156.7800,0.0000
1773224665.538719,109.1199,2.4143,-0.0542,118.8797,-0.0037,-0.0045,7.5708,-0.0342,116.9870,-0.6541,-0.002169,0.113728,7.5709,True,157.3800,0.0000
1773224665.636036,109.8588,2.4186,-0.0537,119.6433,-0.0403,0.0058,7.3680,0.0428,116.9870,-0.6541,0.001095,-0.115877,7.3681,True,157.9800,0.0000
1773224665.735754,111.4426,2.9037,-0.0634,120.4709,-0.1102,-0.0005,7.5055,-0.0034,121.7959,1.0229,-0.001053,-0.070645,7.5055,True,158.5800,0.0000
1773224665.835565,112.2248,2.9774,-0.0637,121.1615,-0.0128,-0.0025,7.8112,-0.0194,121.7959,1.0229,-0.002849,-0.037822,7.8112,True,159.1800,0.0000
1773224665.936067,113.4715,3.6840,-0.0771,121.9561,0.0384,-0.0013,7.6175,-0.0097,123.5107,1.8708,0.003011,-0.132909,7.6175,True,159.7800,0.0000
1773224666.035431,114.2406,3.8455,-0.0767,122.7306,-0.0092,-0.0069,7.5391,-0.0517,123.5107,1.8708,0.001784,-0.051944,7.5393,True,160.3800,0.0000
1773224666.135924,114.8650,1.7664,-0.0277,123.4263,-0.0155,-0.0040,7.5898,-0.0306,124.1467,-1.7093,0.003511,0.001327,7.5899,True,160.9800,0.0000
1773224666.235511,115.6081,1.6363,-0.0278,124.1162,0.0365,0.0070,7.3647,0.0515,124.1467,-1.7093,-0.006975,-0.015660,7.3648,True,161.5800,0.0000
1773224666.335981,116.3459,1.1323,-0.0189,124.9326,0.0477,-0.0050,7.6490,-0.0381,125.7159,-1.1488,0.008865,-0.010194,7.6491,True,162.1800,0.0000
1773224666.435952,117.1149,0.9504,-0.0187,125.7791,-0.0216,-0.0081,7.4799,-0.0604,125.7159,-1.1488,0.001967,0.056445,7.4801,True,162.7800,0.0000
1773224666.536741,117.3613,0.1320,-0.0025,126.4267,-0.0560,0.0023,7.6442,0.0175,126.3423,-2.2922,0.002872,0.132151,7.6442,True,163.3800,0.0000
1773224666.638101,118.1076,-0.1322,-0.0026,127.1210,0.0398,0.0027,7.3551,0.0200,126.3423,-2.2922,-0.000149,0.042327,7.3551,True,163.9200,0.0000
1773224666.739155,118.7136,-0.3454,-0.0027,127.9093,0.0171,0.0077,7.5809,0.0588,130.0887,-0.6138,-0.007293,0.172746,7.5811,True,164.4000,0.0000
1773224666.835824,120.4450,0.6947,-0.0285,128.5124,0.0513,0.0006,7.7453,0.0050,130.0887,-0.6138,0.012305,0.112183,7.7453,True,165.0000,0.0000
1773224666.935703,120.6599,0.3703,-0.0262,129.2861,0.0309,-0.0157,7.4083,-0.1166,129.5882,-1.8545,0.006985,0.193800,7.4092,True,165.6000,0.0000
1773224667.035602,121.4218,0.2370,-0.0263,129.9888,-0.0684,-0.0084,7.7081,-0.0647,129.5882,-1.8545,0.003301,0.178220,7.7084,True,166.2000,0.0000
1773224667.135681,122.1017,1.5280,-0.0180,130.7530,-0.0589,0.0066,7.6725,0.0506,131.5034,0.2397,0.002092,0.272599,7.6727,True,166.8000,0.0000
1773224667.236578,122.8589,1.5871,-0.0181,131.5090,-0.0709,0.0049,7.6651,0.0376,131.5034,0.2397,0.002874,0.155970,7.6651,True,167.4000,0.0000
1773224667.336216,122.1448,1.3481,-0.0256,132.3560,0.0219,0.0003,7.6377,0.0024,129.9683,-0.9383,0.000772,0.149256,7.6377,True,168.0000,0.0000
1773224667.435617,122.9162,1.3622,-0.0257,133.1055,0.0567,0.0074,7.7081,0.0568,129.9683,-0.9383,-0.003440,0.177204,7.7083,True,168.6000,0.0000
1773224667.535877,123.5340,1.6498,-0.0170,133.8762,-0.0505,0.0019,7.6169,0.0143,132.7354,-0.3235,-0.002602,0.107181,7.6169,True,169.2000,0.0000
1773224667.636328,124.3144,1.7005,-0.0170,134.6418,-0.0290,-0.0045,7.8278,-0.0348,132.7354,-0.3235,-0.001365,0.130747,7.8279,True,169.8000,0.0000
1773224667.735716,124.8267,3.3411,0.0430,135.4232,-0.1261,0.0032,7.8854,0.0253,134.0252,2.0761,0.006527,0.303978,7.8854,True,170.4000,0.0000
1773224667.835831,125.5975,3.5995,0.0429,136.1251,0.0034,0.0112,7.7198,0.0866,134.0252,2.0761,0.000129,0.203669,7.7203,True,171.0000,0.0000
1773224667.935717,128.0072,4.1967,0.0552,136.9847,0.0882,0.0058,7.8440,0.0454,139.3504,2.1816,0.001020,0.190001,7.8441,True,171.6000,0.0000
1773224668.035563,128.7662,4.4935,0.0553,137.7628,-0.1149,-0.0005,7.6616,-0.0036,139.3504,2.1816,-0.000573,0.262389,7.6616,True,172.2000,0.0000
1773224668.136047,129.2804,2.1744,-0.0897,138.3608,-0.0329,-0.0052,7.8691,-0.0407,138.3747,-1.3866,-0.006732,0.248729,7.8692,True,172.8000,0.0000
1773224668.236770,129.9876,2.1246,-0.0890,139.2542,-0.0756,0.0004,7.8351,0.0033,138.3747,-1.3866,0.004683,0.273685,7.8351,True,173.4000,0.0000
1773224668.335811,131.0579,1.9527,-0.0945,140.1007,-0.0051,-0.0022,7.8690,-0.0171,140.9037,-0.2338,0.000348,0.116690,7.8691,True,174.0000,0.0000
1773224668.435663,131.8274,1.8828,-0.0944,140.8383,-0.0227,-0.0042,7.8345,-0.0331,140.9037,-0.2338,0.004710,0.106908,7.8345,True,174.5400,0.0000
1773224668.536003,132.2893,1.8407,-0.0942,141.5373,-0.0198,-0.0031,7.8667,-0.0241,140.1154,1.1364,-0.001086,0.235599,7.8668,True,174.7200,0.0000
1773224668.635600,132.4804,2.7316,-0.0405,142.1872,-0.1208,0.0047,7.9669,0.0376,140.1154,1.1364,0.004003,0.162512,7.9670,True,175.6200,0.0000
1773224668.736913,132.1860,3.4387,-0.0025,142.9675,-0.0762,-0.0137,7.9618,-0.1089,140.2374,1.7392,0.001447,0.173442,7.9625,True,176.2200,0.0000
1773224668.835356,132.9776,3.5561,-0.0027,143.7574,-0.1168,-0.0062,7.8909,-0.0488,140.2374,1.7392,-0.008930,0.182279,7.8910,True,176.8200,0.0000
1773224668.935562,133.8994,1.0122,-0.1428,144.5525,-0.0060,0.0071,7.8733,0.0561,143.4622,-2.7939,0.001409,0.121858,7.8735,True,177.4200,0.0000
1773224669.035996,134.6701,0.8292,-0.1424,145.2949,-0.0040,0.0021,7.7914,0.0167,143.4622,-2.7939,0.001405,0.139342,7.7914,True,178.0200,0.0000
1773224669.148369,136.4526,0.8273,-0.1302,146.1657,0.0132,-0.0037,7.8693,-0.0295,147.0906,-1.2020,-0.005885,-0.124965,7.8694,True,178.6200,0.0000
1773224669.235433,137.2398,0.6751,-0.1303,146.8806,-0.0232,-0.0040,7.9746,-0.0320,147.0906,-1.2020,-0.008418,0.000009,7.9747,True,179.2200,0.0000
1773224669.335876,137.5679,0.7834,-0.1244,147.6671,-0.0048,-0.0050,7.8402,-0.0395,146.3950,-1.0902,-0.005585,0.129338,7.8403,True,179.8200,0.0000
1773224669.435700,138.3423,0.6584,-0.1247,148.5405,-0.0566,-0.0082,8.0306,-0.0657,146.3950,-1.0902,-0.012959,-0.029460,8.0309,True,180.4200,0.0000
1773224669.535681,139.6765,0.5011,-0.1243,149.3334,-0.0009,-0.0021,7.7136,-0.0158,149.6953,-1.6330,-0.002295,0.060843,7.7136,True,181.0200,0.0000
1773224669.635755,140.4444,0.3814,-0.1239,150.0472,-0.0920,-0.0042,7.7186,-0.0322,149.6953,-1.6330,0.001318,0.055522,7.7186,True,181.6200,0.0000
1773224669.736984,141.6325,-0.7011,-0.1315,150.7834,0.0051,0.0054,8.0553,0.0439,151.5184,-3.3313,-0.007337,-0.111589,8.0554,True,182.2200,0.0000
1773224669.836216,142.3892,-0.9389,-0.1315,151.6556,-0.0356,-0.0059,7.7266,-0.0457,151.5184,-3.3313,-0.010816,0.102527,7.7268,True,182.8200,0.0000
1773224669.943100,142.8321,-0.3983,-0.1292,152.4252,-0.0088,-0.0051,7.9076,-0.0407,151.7584,-1.9787,0.000481,0.241255,7.9077,True,183.4200,0.0000
1773224670.043324,143.6104,-0.5415,-0.1291,153.2939,0.0176,0.0048,8.0145,0.0381,151.7584,-1.9787,0.002911,0.103494,8.0145,True,183.9600,0.0000
1773224670.136792,143.4087,0.5413,-0.1240,153.9965,-0.0457,-0.0025,7.9414,-0.0199,151.4993,-0.7862,-0.010056,0.126945,7.9414,True,184.3200,0.0000
1773224670.239548,144.1946,0.5396,-0.1243,154.3727,-0.0302,0.0010,7.8074,0.0076,151.4993,-0.7862,-0.004309,-0.000484,7.8074,True,184.8000,0.0000
1773224670.354410,144.8644,0.5375,-0.1245,155.0197,-0.0150,-0.0070,7.9778,-0.0558,155.8681,-0.3956,0.001123,-0.004480,7.9780,True,185.2200,0.0000
1773224670.436285,146.5283,1.4705,-0.1172,155.4948,-0.0086,-0.0052,7.9539,-0.0410,155.8681,-0.3956,0.002889,0.132627,7.9540,True,185.6400,0.0000
1773224670.535578,147.4206,-0.1657,-0.1269,156.1725,0.0405,0.0002,7.9502,0.0015,157.0737,-3.3536,0.000467,0.170753,7.9502,True,186.2400,0.0000
1773224670.635750,148.2284,-0.2776,-0.1271,156.9712,-0.0357,0.0015,7.8441,0.0120,157.0737,-3.3536,-0.012839,0.142360,7.8441,True,186.8400,0.0000
1773224670.741042,149.7864,1.5436,-0.1110,157.7619,-0.0493,-0.0026,7.8936,-0.0207,159.9199,0.4620,-0.011063,0.065003,7.8937,True,187.3800,0.0000
1773224670.835625,150.6028,1.6966,-0.1116,158.6359,-0.0601,0.0023,7.8716,0.0182,159.9199,0.4620,0.002578,0.144490,7.8716,True,188.0400,0.0000
1773224670.936017,150.6422,3.7299,-0.0921,159.3620,-0.1466,-0.0042,7.9546,-0.0334,158.9666,2.6070,-0.006993,0.150911,7.9547,True,188.6400,0.0000
1773224671.035566,151.4675,4.1177,-0.0922,160.1421,0.0061,0.0052,7.8788,0.0407,158.9666,2.6070,0.005696,0.107166,7.8789,True,189.2400,0.0000
1773224671.135625,151.4654,3.8666,-0.1030,160.9200,0.0029,-0.0025,8.0638,-0.0204,159.8690,1.3056,0.004473,0.089455,8.0639,True,189.8400,0.0000
1773224671.236849,152.3032,4.1584,-0.1028,161.6992,0.0272,0.0049,7.9793,0.0390,159.8690,1.3056,0.001957,-0.009105,7.9794,True,190.4400,0.0000
1773224671.337667,152.6194,5.5144,-0.0852,162.5505,-0.0125,0.0065,7.9978,0.0523,161.2900,3.8601,-0.003443,0.089644,7.9979,True,191.0400,0.0000
1773224671.435832,153.4391,5.9342,-0.0855,163.3593,-0.0080,0.0022,7.9486,0.0178,161.2900,3.8601,0.004571,0.041361,7.9486,True,191.6400,0.0000
1773224671.535953,154.4977,4.2262,-0.1146,164.0403,0.0287,-0.0097,8.1011,-0.0788,164.1969,0.8012,0.000437,-0.015722,8.1014,True,192.1800,0.0000
1773224671.635598,155.3216,4.3714,-0.1146,164.6467,-0.0500,-0.0020,8.0864,-0.0164,164.1969,0.8012,-0.005825,0.040337,8.0864,True,192.6600,0.0000
1773224671.735508,155.8193,6.5609,-0.1024,165.4597,0.0163,0.0022,7.9723,0.0175,164.8586,5.5120,-0.002739,0.023882,7.9724,True,193.2600,0.0000
1773224671.839048,156.6677,6.9682,-0.1026,166.2326,0.0352,0.0020,8.2192,0.0161,164.8586,5.5120,0.006683,0.092123,8.2193,True,193.8600,0.0000
1773224671.936888,157.7779,5.0909,-0.1031,167.0562,-0.0243,-0.0018,8.0915,-0.0142,167.7169,1.5765,-0.000806,0.108648,8.0915,True,194.4600,0.0000
1773224672.035786,158.5924,5.1984,-0.1027,167.9051,-0.0582,-0.0137,7.9967,-0.1096,167.7169,1.5765,-0.000492,0.035662,7.9975,True,195.0600,0.0000
1773224672.135509,159.7553,4.3355,-0.1051,168.6369,-0.0575,0.0013,7.8853,0.0102,169.6106,1.5802,0.008255,0.290086,7.8853,True,195.6600,0.0000
1773224672.235820,160.5792,4.3184,-0.1049,169.5904,-0.0160,-0.0005,8.0889,-0.0039,169.6106,1.5802,-0.005363,-0.010167,8.0889,True,196.2600,0.0000
1773224672.336264,160.9279,4.7746,-0.1022,170.3312,-0.1065,0.0044,8.1220,0.0357,169.7168,2.9404,0.000379,0.090870,8.1221,True,196.8600,0.0000
1773224672.435474,161.7363,4.8159,-0.1025,171.0777,-0.0988,0.0041,7.8474,0.0320,169.7168,2.9404,0.000299,-0.096028,7.8474,True,197.4600,0.0000
1773224672.535512,161.9537,3.1126,-0.1094,171.8716,0.1039,0.0051,8.0877,0.0410,170.7315,0.0849,-0.002182,0.066388,8.0878,True,198.0600,0.0000
1773224672.635775,162.7455,2.9148,-0.1097,172.6449,0.0056,0.0020,8.1315,0.0165,170.7315,0.0849,-0.010735,0.023524,8.1315,True,198.6600,0.0000
1773224672.735546,162.6460,1.3213,-0.1050,173.5437,-0.0286,-0.0069,8.1929,-0.0568,171.0664,-1.4094,0.004753,-0.041734,8.1931,True,199.2600,0.0000
1773224672.844042,163.2502,1.0088,-0.1051,174.2942,0.0127,0.0032,7.9302,0.0255,171.0664,-1.4094,-0.001879,-0.072103,7.9302,True,199.8600,0.0000
1773224672.944056,165.2847,0.1012,-0.1017,175.1325,0.0140,-0.0023,7.9415,-0.0182,176.1355,-2.2440,-0.002325,0.160739,7.9415,True,200.4000,0.0000
1773224673.035589,166.0078,-0.3116,-0.1019,175.9036,-0.0302,-0.0141,7.9726,-0.1125,176.1355,-2.2440,0.001526,-0.015269,7.9734,True,201.0000,0.0000
1773224673.138948,167.7723,3.0024,-0.1681,176.6596,-0.0419,-0.0040,7.8067,-0.0309,178.1239,3.1466,-0.002393,-0.014262,7.8067,True,201.6000,0.0000
1773224673.235738,168.5945,3.0668,-0.1681,177.3842,0.0099,0.0017,8.0607,0.0140,178.1239,3.1466,-0.004179,0.016604,8.0607,True,202.2000,0.0000
1773224673.344874,170.2477,0.6390,-0.1216,178.2333,-0.0542,-0.0160,7.8901,-0.1262,180.8783,-2.9448,0.003547,-0.003701,7.8911,True,202.8000,0.0000
1773224673.440004,171.0312,0.3965,-0.1219,178.9244,-0.0011,0.0082,8.0279,0.0655,180.8783,-2.9448,-0.010549,0.002745,8.0282,True,203.3400,0.0000
1773224673.542650,172.2945,-0.6503,-0.1083,179.7318,0.0302,0.0009,7.8502,0.0070,182.4262,-3.2290,-0.005730,-0.084383,7.8502,True,203.8800,0.0000
1773224673.635813,173.1106,-1.0085,-0.1084,180.5941,-0.0258,0.0006,8.1317,0.0046,182.4262,-3.2290,-0.003032,-0.030990,8.1317,True,204.3000,0.0000
1773224673.759797,170.9263,-0.3521,-0.1210,181.0121,0.0359,0.0051,7.8251,0.0397,176.9356,-1.6139,-0.000139,-0.055433,7.8252,True,204.7800,0.0000
1773224673.846822,171.6997,-0.6014,-0.1211,181.6101,-0.0289,0.0060,8.0050,0.0477,176.9356,-1.6139,0.004839,-0.033948,8.0052,True,205.0800,0.0000
1773224673.967426,171.6997,-0.6014,-0.1211,181.6101,-0.0289,0.0060,8.0050,0.0477,176.9356,-1.6139,0.002511,0.016232,8.0052,True,205.1400,0.0000
1773224674.045258,172.7113,0.7030,-0.1588,182.7316,0.0496,0.0027,8.0923,0.0222,182.4023,-0.4694,0.009571,0.015600,8.0924,True,205.6800,0.0000
1773224674.152532,175.3162,0.6566,-0.1640,183.4703,0.0163,0.0047,8.0809,0.0377,186.0114,-1.5243,-0.001090,0.149605,8.0810,True,206.7000,0.0000
1773224674.244959,176.1867,0.6384,-0.1639,184.1682,-0.0204,0.0041,7.9094,0.0326,186.0114,-1.5243,-0.009094,-0.010223,7.9095,True,207.1800,0.0000
1773224674.339916,176.8090,0.6256,-0.1642,184.9077,-0.0297,-0.0104,7.9239,-0.0828,183.5307,-0.6631,0.001894,-0.053385,7.9243,True,207.7200,0.0000
1773224674.435987,176.3774,1.0900,-0.1691,185.6100,0.1066,0.0003,7.7829,0.0026,183.5307,-0.6631,0.002498,-0.048609,7.7829,True,208.3800,0.0000
1773224674.535841,178.1969,0.9875,-0.1703,186.4982,0.0420,0.0021,7.9626,0.0167,188.6727,-1.3134,0.000281,-0.112316,7.9627,True,208.9800,0.0000
1773224674.635530,178.9706,1.0070,-0.1705,187.3856,0.1364,-0.0029,8.0053,-0.0233,188.6727,-1.3134,-0.001479,0.040730,8.0053,True,209.5800,0.0000
1773224674.735728,180.1535,2.5939,-0.2171,188.0717,0.0011,0.0026,7.8077,0.0204,189.7283,1.3037,-0.001158,-0.049807,7.8078,True,210.1800,0.0000
1773224674.836075,180.9943,2.8088,-0.2175,188.9931,0.0301,0.0034,7.8653,0.0265,189.7283,1.3037,-0.004946,-0.022218,7.8653,True,210.7800,0.0000
1773224674.935610,181.9180,3.3884,-0.2303,189.6710,0.0066,-0.0001,8.0322,-0.0009,191.4184,1.4148,0.003703,-0.036151,8.0322,True,211.3800,0.0000
1773224675.035490,182.7801,3.6472,-0.2308,190.4177,-0.0352,0.0024,8.0003,0.0189,191.4184,1.4148,-0.002190,-0.139279,8.0004,True,211.9800,0.0000
1773224675.138474,182.5292,3.0933,-0.1772,191.2459,-0.0258,-0.0055,7.6894,-0.0420,190.6713,0.5925,-0.005495,-0.051061,7.6895,True,212.5800,0.0000
1773224675.235703,183.3864,3.2215,-0.1794,192.0746,-0.0476,-0.0012,8.1722,-0.0097,190.6713,0.5925,0.000741,0.007635,8.1722,True,213.1800,0.0000
1773224675.338657,184.5892,1.8873,-0.1165,192.9356,-0.0580,-0.0025,7.8986,-0.0201,194.6429,-1.1138,-0.003395,-0.017404,7.8987,True,213.7800,0.0000
1773224675.436381,185.3721,1.8313,-0.1167,193.6287,-0.0847,0.0042,7.9980,0.0332,194.6429,-1.1138,-0.005803,-0.009658,7.9981,True,214.3800,0.0000
1773224675.535710,184.7688,0.7150,-0.0657,194.4262,-0.0470,0.0059,7.9375,0.0471,192.7443,-1.9001,0.001155,-0.038574,7.9376,True,214.9800,0.0000
1773224675.637723,185.5341,0.5014,-0.0659,195.2503,-0.0149,0.0091,7.9839,0.0728,192.7443,-1.9001,-0.000086,-0.072686,7.9842,True,215.5800,0.0000
1773224675.736184,186.6672,2.5177,-0.1460,196.0712,0.0013,-0.0009,8.0634,-0.0076,196.4487,1.7694,0.003350,0.033629,8.0634,True,216.1800,0.0000
1773224675.836344,187.4789,2.5843,-0.1463,196.8617,-0.0172,0.0032,7.8636,0.0249,196.4487,1.7694,0.001096,0.106404,7.8636,True,216.6000,0.0000
1773224675.937407,189.3903,3.8509,-0.1902,197.3845,-0.1220,-0.0008,7.9622,-0.0064,200.0621,2.3594,-0.003383,0.066833,7.9622,True,217.1400,0.0000
1773224676.037090,190.2490,4.0871,-0.1905,198.2007,0.0843,0.0050,8.0497,0.0402,200.0621,2.3594,-0.005389,-0.007390,8.0498,True,217.7400,0.0000
1773224676.135893,189.9376,2.1832,-0.1306,199.0008,-0.0180,-0.0038,7.8562,-0.0300,198.2729,-1.1286,-0.003942,0.004268,7.8562,True,218.2800,0.0000
1773224676.235806,190.8071,2.1035,-0.1312,199.7581,0.0299,0.0029,7.9423,0.0226,198.2729,-1.1286,-0.000015,-0.045198,7.9424,True,218.8200,0.0000
1773224676.337336,191.6671,-0.1257,-0.0753,200.3185,-0.0061,-0.0013,7.8259,-0.0103,201.5537,-3.5501,-0.000749,-0.174324,7.8259,True,219.4200,0.0000
1773224676.446844,192.4447,-0.4819,-0.0755,201.0350,0.0320,-0.0022,7.9688,-0.0177,201.5537,-3.5501,0.004069,-0.058479,7.9688,True,219.9000,0.0000
1773224676.543020,191.9641,1.8512,-0.1582,201.7100,-0.0469,0.0011,7.9999,0.0091,199.9073,1.5983,0.000235,-0.172041,7.9999,True,220.3800,0.0000
1773224676.671882,191.9641,1.8512,-0.1582,201.7100,-0.0469,0.0011,7.9999,0.0091,199.9073,1.5983,0.000926,-0.226156,7.9999,True,220.6800,0.0000
1773224676.737599,192.7440,1.7832,-0.1563,203.2780,-0.1237,-0.0061,7.8465,-0.0479,204.6615,1.0868,0.000232,-0.263448,7.8467,True,220.9800,0.0000
1773224676.840584,195.0772,2.6641,-0.2044,203.7787,-0.0725,-0.0104,7.8703,-0.0819,204.6615,1.0868,-0.006141,-0.107054,7.8707,True,222.0600,0.0000
1773224676.936604,195.2097,1.6516,-0.0780,204.7028,0.0268,0.0026,7.6503,0.0201,204.0407,-1.0678,0.001403,-0.333559,7.6504,True,222.6000,0.0000
1773224677.036978,195.9801,1.5623,-0.0848,205.4008,-0.0171,-0.0021,7.8069,-0.0161,204.0407,-1.0678,-0.012269,-0.269217,7.8069,True,223.2000,0.0000
1773224677.135637,195.7578,1.3768,-0.0632,206.1046,-0.0595,0.0042,7.8169,0.0330,204.0809,-0.7159,-0.006463,-0.147918,7.8170,True,223.7400,0.0000
1773224677.239716,196.5073,1.2579,-0.0634,206.6914,-0.0353,0.0026,7.7608,0.0204,204.0809,-0.7159,-0.003889,-0.063954,7.7609,True,224.2800,0.0000
1773224677.341182,196.5729,0.4529,0.0129,207.6420,0.0343,-0.0047,7.7946,-0.0366,205.2560,-2.1025,-0.000730,-0.229070,7.7947,True,224.9400,0.0000
1773224677.436507,197.3354,0.2793,0.0050,208.2107,-0.0476,-0.0041,7.5538,-0.0307,205.2560,-2.1025,-0.004461,-0.175888,7.5539,True,225.5400,0.0000
1773224677.535861,199.7647,1.5434,-0.1794,209.0463,-0.0610,0.0014,7.7586,0.0107,211.1974,0.4111,-0.003897,-0.265776,7.7586,True,226.1400,0.0000
1773224677.636123,200.5482,1.5146,-0.1781,209.8541,0.0088,-0.0072,7.8098,-0.0559,211.1974,0.4111,-0.003021,-0.205765,7.8100,True,226.7400,0.0000
1773224677.735930,201.3980,3.6087,-0.4562,210.5077,-0.1122,-0.0010,7.6759,-0.0080,210.7442,2.9427,0.004103,-0.338799,7.6759,True,227.1600,0.0000
1773224678.224070,201.3980,3.6087,-0.4562,210.5077,-0.1122,-0.0010,7.6759,-0.0080,210.7442,2.9427,0.004103,-0.338799,7.6759,True,227.1600,0.0000
1773224678.278432,204.2622,2.4600,-0.0490,211.1196,-0.0227,-0.0047,7.5720,-0.0354,212.9067,0.2210,0.000435,-0.098135,7.5721,True,229.0800,0.0000
1773224678.357638,204.2910,3.7862,-0.1953,211.8842,-0.0707,-0.0004,7.5702,-0.0027,208.3784,-1.6673,-0.005363,-0.156508,7.5702,True,229.4400,0.0000
1773224678.442126,204.9850,3.7847,-0.1990,213.4256,-0.0104,0.0044,7.6062,0.0333,208.3784,-1.6673,-0.002563,0.038833,7.6063,True,229.9200,0.0000
1773224678.561713,203.2225,1.8696,-0.0361,215.3423,0.0923,0.0003,7.6341,0.0022,210.3069,-0.9457,-0.002551,0.014962,7.6341,True,230.5200,0.0000
1773224678.638247,203.5288,1.8253,-0.0360,215.5044,-0.0144,0.0034,7.5490,0.0257,210.3069,-0.9457,-0.000916,-0.028475,7.5490,True,230.7600,0.0000
1773224678.737014,203.7553,1.2095,-0.0061,216.4228,-0.0148,0.0015,7.6631,0.0117,218.3621,0.1130,0.008798,-0.073885,7.6631,True,231.5400,0.0000
1773224678.843312,207.0312,1.6827,-0.0514,217.0880,-0.0101,0.0000,7.4886,0.0001,218.3621,0.1130,-0.000143,0.018545,7.4886,True,232.3800,0.0000
1773224678.938965,210.3893,0.3513,0.0124,217.7252,0.0489,-0.0052,7.5605,-0.0391,223.0037,-2.6806,-0.007398,-0.064409,7.5606,True,232.9800,0.0000
1773224679.036723,211.1481,0.1439,0.0116,218.4462,-0.0050,0.0000,7.4834,0.0001,223.0037,-2.6806,-0.011424,-0.052236,7.4834,True,233.5200,0.0000
1773224679.136943,211.7452,-0.0220,0.0111,219.0744,-0.0566,-0.0043,7.5860,-0.0324,220.2415,-1.3611,-0.000109,-0.270152,7.5861,True,234.0000,0.0000
1773224679.235558,212.0904,0.2649,-0.0153,219.8231,0.0141,0.0003,7.4646,0.0024,220.2415,-1.3611,-0.005442,-0.280783,7.4646,True,234.6600,0.0000
1773224679.336257,212.5531,2.0793,-0.1358,220.6367,0.0186,-0.0048,7.5895,-0.0364,221.7121,1.2629,0.005436,-0.188933,7.5896,True,235.2000,0.0000
1773224679.441861,213.3151,2.1450,-0.1321,221.2514,-0.0059,-0.0172,7.5365,-0.1297,221.7121,1.2629,-0.005501,-0.227752,7.5376,True,235.7400,0.0000
1773224679.535903,211.6392,1.9748,-0.0797,221.8919,-0.0495,0.0035,7.3932,0.0261,218.3457,-0.1968,-0.006550,-0.328627,7.3932,True,236.2800,0.0000
1773224679.636263,212.4086,1.9882,-0.0800,222.6238,-0.0982,-0.0020,7.3491,-0.0144,218.3457,-0.1968,-0.002708,-0.309940,7.3491,True,236.9400,0.0000
1773224679.736847,212.0341,1.4975,-0.0055,223.2888,-0.0170,-0.0027,7.2803,-0.0199,220.3650,-0.8949,-0.007319,-0.390611,7.2804,True,237.4800,0.0000
1773224679.836267,212.7748,1.4351,-0.0055,224.0198,-0.0514,0.0031,7.4502,0.0228,220.3650,-0.8949,-0.007149,-0.293888,7.4502,True,238.1400,0.0000
1773224679.936934,211.9988,3.6442,0.0889,224.8146,0.0247,-0.0061,7.4243,-0.0456,219.6998,3.7935,-0.007138,-0.230218,7.4245,True,238.7400,0.0000
1773224680.040695,212.7818,3.4282,0.1875,225.6011,-0.0956,0.0005,7.0673,0.0037,219.6998,3.7935,-0.003192,-0.314219,7.0673,True,239.1600,0.0000
1773224680.166091,212.8924,3.4113,0.1875,225.6011,-0.0956,0.0005,7.0673,0.0037,219.6998,3.7935,0.003642,-0.304683,7.0673,True,239.2200,0.0000
1773224680.284357,213.2484,3.3578,0.1877,225.7351,-0.0293,-0.0049,7.1307,-0.0347,224.8104,-2.8869,-0.007464,-0.408252,7.1307,True,239.7600,0.0000
1773224680.362397,214.4659,1.2386,0.2479,226.0457,0.0097,0.0046,7.1554,0.0328,224.8104,-2.8869,0.004319,-0.405486,7.1555,True,239.8800,0.0000
1773224680.566908,216.0620,0.5539,0.2816,226.1475,0.0044,0.0026,7.2114,0.0189,225.7662,-1.8964,-0.007316,-0.285657,7.2114,True,240.8400,0.0000
1773224680.648205,217.1950,0.2890,0.2766,227.0481,-0.0873,0.0030,7.2646,0.0221,229.0549,-1.7427,-0.002035,-0.297564,7.2646,True,241.2600,0.0000
1773224680.737538,219.2085,0.0651,0.3152,228.8796,-0.0642,-0.0024,7.0500,-0.0171,230.1483,1.6222,-0.005344,-0.264950,7.0500,True,241.7400,0.0000
1773224680.848613,219.5336,-0.0182,0.3156,229.4450,0.0086,-0.0024,7.0863,-0.0173,230.1483,1.6222,-0.009446,-0.384256,7.0863,True,242.2800,0.0000
1773224681.032434,221.0326,2.1515,-0.2075,229.7724,-0.0413,-0.0087,6.9702,-0.0603,230.1483,1.6222,0.004569,-0.426439,6.9705,True,243.0600,0.0000
1773224681.231560,221.8237,1.0203,-0.0227,230.0956,-0.0590,0.0015,7.0849,0.0104,230.2233,-2.1103,-0.005483,-0.513373,7.0849,True,244.1400,0.0000
1773224681.313286,222.2130,0.9971,-0.0219,230.3619,0.0759,-0.0004,6.9383,-0.0029,232.5316,-1.6310,0.001112,-0.311525,6.9383,True,244.4400,0.0000
1773224681.368564,222.8006,0.7049,0.0298,230.4557,0.0042,-0.0047,7.1252,-0.0338,232.5316,-1.6310,-0.003609,-0.315009,7.1253,True,244.5000,0.0000
1773224681.438954,223.9168,0.5983,0.0295,232.3092,-0.1033,0.0043,6.8845,0.0296,228.5082,-4.2612,0.001011,-0.223494,6.8845,True,244.8600,0.0000
1773224681.536281,222.9812,-0.5409,-0.1807,232.9598,-0.0604,0.0061,6.9527,0.0422,235.5672,-1.4804,-0.004016,-0.286576,6.9528,True,245.4600,0.0000
1773224681.636198,225.1380,0.1123,-0.2286,233.6979,-0.0336,0.0068,6.7654,0.0463,235.5672,-1.4804,0.003095,-0.350379,6.7656,True,246.2400,0.0000
1773224681.735801,226.2903,-0.0587,-0.2032,234.3587,-0.0566,0.0074,6.7675,0.0501,236.2297,-2.4396,-0.004502,-0.382141,6.7677,True,246.8400,0.0000
1773224681.836043,226.9833,-0.0059,-0.2032,235.0001,-0.1045,-0.0081,6.7105,-0.0544,236.2297,-2.4396,-0.003490,-0.346131,6.7107,True,247.4400,0.0000
1773224681.944959,227.4337,-0.7620,-0.0302,235.6239,0.0337,0.0120,6.6644,0.0803,236.5286,-3.4104,0.003339,-0.368722,6.6649,True,247.9800,0.0000
1773224682.036005,228.0336,-0.8010,-0.0320,236.2525,0.0041,0.0093,6.7287,0.0623,236.5286,-3.4104,0.001792,-0.442686,6.7289,True,248.4600,0.0000
1773224682.136245,227.0772,-2.0242,0.0110,236.8982,0.0611,-0.0001,6.6677,-0.0005,234.7889,-5.2392,0.000384,-0.376768,6.6677,True,249.0600,0.0000
1773224682.250554,227.7681,-2.0281,-0.0414,237.5131,-0.0569,0.0024,6.6994,0.0163,234.7889,-5.2392,-0.000616,-0.316386,6.6995,True,249.5400,0.0000
1773224682.337711,228.7601,-1.2316,-0.1454,238.0663,0.1051,0.0018,6.5004,0.0114,238.6878,-2.6164,-0.012536,-0.248600,6.5004,True,250.0200,0.0000
1773224682.435762,229.4144,-1.2198,-0.1454,238.6671,-0.0790,-0.0038,6.5822,-0.0250,238.6878,-2.6164,-0.015759,-0.394707,6.5822,True,250.5000,0.0000
1773224682.651632,229.4144,-1.2198,-0.1454,238.6671,-0.0790,-0.0038,6.5822,-0.0250,238.6878,-2.6164,-0.005969,-0.454901,6.5822,True,250.8600,0.0000
1773224682.875652,230.6998,0.1745,0.0443,238.7679,0.0572,0.0006,6.4680,0.0042,238.6242,0.0570,-0.009289,-0.320508,6.4680,True,252.0000,0.0000
1773224683.098768,231.4337,-0.0157,0.0485,239.5542,-0.0473,0.0010,6.5263,0.0062,239.0359,-1.9265,-0.001730,-0.407492,6.5263,True,253.2000,0.0000
1773224683.295701,233.2691,2.2668,-0.1607,240.5667,0.0030,-0.0007,6.4205,-0.0045,242.2822,2.2504,0.000316,-0.532382,6.4205,True,254.2200,0.0000
1773224683.343616,233.6117,2.5068,-0.1861,240.7968,-0.0289,-0.0049,6.5342,-0.0318,243.4019,0.6002,-0.000207,-0.493305,6.5343,True,254.4000,0.0000
1773224683.440718,234.7755,2.5641,-0.1874,242.9869,-0.0693,-0.0077,6.2466,-0.0483,242.6399,-3.2482,0.004336,-0.551260,6.2468,True,254.9400,0.0000
1773224683.549230,235.1760,0.5273,0.0036,244.1968,-0.0207,0.0011,6.0892,0.0068,246.3306,4.2970,-0.001887,-0.588153,6.0892,True,255.6600,0.0000
1773224683.645768,236.4829,3.3487,-0.0147,244.8223,0.0156,0.0056,5.9860,0.0334,246.3306,4.2970,-0.000571,-0.483940,5.9861,True,256.3200,0.0000
1773224683.744105,236.9594,2.6085,0.0675,245.1789,0.0303,0.0029,6.1888,0.0181,246.2081,-0.1906,-0.004217,-0.582342,6.1889,True,256.8600,0.0000
1773224683.839143,237.5681,2.5348,0.0658,245.7473,-0.0231,-0.0006,5.9710,-0.0038,246.2081,-0.1906,-0.000947,-0.544521,5.9710,True,257.4600,0.0000
1773224683.935916,238.0529,2.4750,0.0654,246.3407,-0.0307,0.0009,5.7733,0.0053,250.5966,-1.2859,-0.004614,-0.575518,5.7733,True,257.9400,0.0000
1773224684.039727,240.1162,1.5873,0.0745,246.7830,0.0371,-0.0008,5.7757,-0.0045,250.5966,-1.2859,-0.010135,-0.511155,5.7757,True,258.6000,0.0000
1773224684.139270,239.8634,1.0575,0.1401,247.3901,0.0148,-0.0070,5.6701,-0.0396,248.2314,-1.4576,0.001941,-0.612669,5.6702,True,259.2000,0.0000
1773224684.236354,240.4332,0.9532,0.1432,248.0100,0.0148,0.0089,5.6696,0.0507,248.2314,-1.4576,-0.007916,-0.544371,5.6698,True,259.7400,0.0000
1773224684.342389,240.8991,0.8657,0.1425,248.5478,0.0249,0.0055,5.7157,0.0315,249.2823,-1.6805,-0.002106,-0.536519,5.7158,True,260.2200,0.0000
1773224684.436323,241.0202,0.5198,0.1506,249.1028,-0.0072,-0.0007,5.6719,-0.0042,249.2823,-1.6805,0.003055,-0.532661,5.6719,True,260.8800,0.0000
1773224684.543854,241.6040,0.4119,0.1497,249.5216,-0.0046,0.0000,5.5842,0.0002,247.6936,1.3547,0.001322,-0.383029,5.5842,True,261.4200,0.0000
1773224684.646667,240.4391,1.8750,0.1158,250.1486,0.0689,0.0023,5.5548,0.0127,247.6936,1.3547,-0.011438,-0.493441,5.5548,True,262.0800,0.0000
1773224684.742897,242.2758,1.0769,0.1795,250.7485,0.0414,0.0067,5.4445,0.0364,253.2931,-1.7321,-0.002130,-0.413751,5.4446,True,262.6200,0.0000
1773224684.835953,242.8946,0.9355,0.1777,251.2742,-0.0749,-0.0017,5.4559,-0.0092,253.2931,-1.7321,-0.004019,-0.497412,5.4559,True,263.1000,0.0000
1773224684.937951,242.6006,1.1893,0.0937,251.7537,-0.0477,-0.0022,5.4223,-0.0119,251.1889,-0.5879,0.005233,-0.534315,5.4223,True,263.6400,0.0000
1773224685.037544,243.1336,1.0928,0.0942,252.0550,-0.0557,-0.0073,5.3197,-0.0386,251.1889,-0.5879,-0.007159,-0.432465,5.3199,True,264.0600,0.0000
1773224685.135649,243.9179,2.0506,-0.1076,252.7176,0.0103,-0.0060,5.2541,-0.0316,253.8133,0.7920,-0.007392,-0.376489,5.2542,True,264.7800,0.0000
1773224685.235848,244.4602,2.0537,-0.1093,253.1544,-0.0515,0.0009,5.3836,0.0046,253.8133,0.7920,-0.013310,-0.456904,5.3836,True,265.3800,0.0000
1773224685.335427,243.0133,0.4000,0.0117,253.7401,0.0301,-0.0020,5.2026,-0.0106,250.2784,-3.2839,-0.008275,-0.350562,5.2026,True,265.9800,0.0000
1773224685.435975,243.5344,0.4300,-0.0615,254.2968,-0.0416,-0.0066,5.1509,-0.0341,250.2784,-3.2839,-0.001617,-0.443989,5.1510,True,266.5800,0.0000
1773224685.539712,244.6200,1.3821,-0.1463,254.7281,-0.0104,0.0017,5.1146,0.0087,254.8591,0.1906,-0.004993,-0.505781,5.1146,True,267.1800,0.0000
1773224685.636191,245.1488,1.4125,-0.1533,255.3534,-0.0736,0.0036,5.0425,0.0182,254.8591,0.1906,0.000485,-0.509554,5.0425,True,267.7800,0.0000
1773224685.735903,245.8958,1.2680,-0.1266,255.7549,-0.0486,0.0100,4.9971,0.0498,255.7305,-1.0104,0.006859,-0.626130,4.9973,True,268.3800,0.0000
1773224685.836267,246.4016,1.2822,-0.1274,256.2552,-0.0357,0.0039,5.1042,0.0199,255.7305,-1.0104,-0.011712,-0.646354,5.1043,True,268.9200,0.0000
1773224685.936129,247.5056,2.6156,-0.4655,256.7723,-0.0382,-0.0063,5.0084,-0.0316,257.6616,1.3572,-0.005768,-0.605199,5.0085,True,269.5800,0.0000
1773224686.036368,247.9633,2.2143,0.0512,257.1875,0.0188,-0.0040,5.0464,-0.0203,257.6616,1.3572,-0.002535,-0.434563,5.0464,True,270.1800,0.0000
1773224686.137615,248.8257,1.6915,0.0842,257.7796,-0.0160,-0.0097,4.8564,-0.0470,258.7514,-0.8811,0.004904,-0.519024,4.8567,True,270.7800,0.0000
1773224686.240890,249.3268,1.6097,0.0841,258.1836,-0.0690,0.0008,4.8265,0.0039,258.7514,-0.8811,-0.012858,-0.564866,4.8265,True,271.2600,0.0000
1773224686.335878,249.3543,2.2295,-0.0838,258.6150,-0.0551,-0.0015,4.5532,-0.0068,258.4367,0.6552,-0.008070,-0.682044,4.5532,True,271.9800,0.0000
1773224686.435931,249.8257,2.2040,-0.0633,259.0984,-0.1062,0.0080,4.6678,0.0375,258.4367,0.6552,-0.007963,-0.708199,4.6680,True,272.5800,0.0000
1773224686.535454,251.2175,1.8288,0.0164,259.6046,-0.0004,0.0013,4.7158,0.0061,261.8533,-0.5673,-0.002489,-0.625686,4.7158,True,273.1800,0.0000
1773224686.636509,251.6484,1.7728,0.0221,260.1479,-0.1089,0.0001,4.3525,0.0006,261.8533,-0.5673,-0.009922,-0.655573,4.3525,True,273.7800,0.0000
1773224686.738030,252.0078,1.7303,0.0214,260.5759,-0.0871,-0.0051,4.4994,-0.0230,260.5092,-2.8469,0.012268,-0.635470,4.4995,True,274.3200,0.0000
1773224686.935411,251.6682,0.5486,-0.0536,260.5759,-0.0871,-0.0051,4.4994,-0.0230,260.5092,-2.8469,0.012268,-0.635470,4.4995,True,274.3200,0.0000
1773224687.038281,252.3782,0.6940,-0.1780,261.6049,-0.0576,-0.0037,4.3508,-0.0160,262.2459,-1.2508,0.003951,-0.496416,4.3508,True,275.4000,0.0000
1773224687.145288,253.3452,0.8578,-0.1875,262.0238,-0.0340,0.0048,4.2423,0.0205,261.8201,-0.9420,-0.016467,-0.542542,4.2423,True,276.1200,0.0000
1773224687.306705,252.9884,1.0407,-0.2013,262.0238,-0.0340,0.0048,4.2423,0.0205,261.8201,-0.9420,-0.018535,-0.521739,4.2423,True,276.6000,0.0000
1773224687.361594,253.2598,1.0614,-0.1988,262.4891,-0.0460,-0.0010,4.1572,-0.0042,259.4274,0.5160,-0.006213,-0.470863,4.1572,True,276.7800,0.0000
1773224687.440466,253.4870,1.0854,-0.1990,262.7673,0.0364,-0.0012,4.2481,-0.0050,259.4274,0.5160,0.003121,-0.430026,4.2481,True,277.2000,0.0000
1773224687.541199,252.8171,1.9389,-0.2281,263.2507,-0.0019,-0.0064,4.1939,-0.0269,267.3009,-1.6041,-0.007938,-0.373682,4.1940,True,277.9200,0.0000
1773224687.635584,255.5544,1.2893,-0.1848,263.6732,-0.0081,-0.0021,4.3700,-0.0090,267.3009,-1.6041,-0.015426,-0.390808,4.3700,True,278.5200,0.0000
1773224687.744351,255.8692,1.3147,-0.1846,264.1268,-0.0617,-0.0040,4.0696,-0.0164,265.4121,1.7751,-0.001354,-0.384054,4.0696,True,279.1200,0.0000
1773224687.843522,256.3320,2.3719,-0.0591,264.2770,-0.0377,0.0011,3.9901,0.0043,265.4121,1.7751,-0.004777,-0.613613,3.9901,True,279.7200,0.0000
1773224687.937874,255.7439,0.9681,0.0473,264.6787,-0.0176,-0.0041,3.9364,-0.0162,264.2822,-2.4405,-0.005542,-0.511491,3.9365,True,280.2000,0.0000
1773224688.037527,256.1760,0.8456,0.0459,264.8579,-0.0371,-0.0030,3.9053,-0.0118,264.2822,-2.4405,-0.007759,-0.504085,3.9053,True,280.6200,0.0000
1773224688.144008,255.7628,1.5502,-0.0712,265.2685,-0.0488,0.0038,3.7781,0.0143,264.3625,0.2082,-0.005401,-0.550654,3.7782,True,281.1600,0.0000
1773224688.235618,256.1361,1.4985,-0.0712,265.5335,-0.0873,0.0109,4.0322,0.0441,264.3625,0.2082,-0.011286,-0.526422,4.0324,True,281.6400,0.0000
1773224688.342476,257.3315,2.4860,-0.1665,265.9078,-0.0808,-0.0001,3.8974,-0.0003,267.8106,1.2924,-0.005905,-0.564272,3.8974,True,282.1200,0.0000
1773224688.439493,257.7146,2.4565,-0.1458,266.2800,-0.0261,-0.0014,3.8336,-0.0055,267.8106,1.2924,0.005055,-0.539242,3.8336,True,282.4200,0.0000
1773224688.535996,257.8234,1.8603,-0.0312,266.5484,-0.1338,-0.0103,3.6880,-0.0380,267.1444,-0.6931,-0.002375,-0.330323,3.6882,True,283.2600,0.0000
1773224688.635888,258.1945,1.7811,-0.0299,266.9403,-0.0471,-0.0027,3.6365,-0.0096,267.1444,-0.6931,-0.006789,-0.483567,3.6365,True,283.8000,0.0000
1773224688.739033,257.3482,3.6503,-0.2161,267.3244,0.0220,0.0035,3.5987,0.0126,265.5097,3.2778,-0.008962,-0.453964,3.5987,True,284.3400,0.0000
1773224688.838122,257.7157,3.6163,-0.1759,267.6448,-0.0074,0.0044,3.5458,0.0157,265.5097,3.2778,0.006065,-0.382174,3.5459,True,285.0000,0.0000
1773224688.938285,258.4975,4.1727,-0.2401,267.9789,-0.0674,-0.0003,3.6382,-0.0011,268.5696,2.5265,-0.006839,-0.391316,3.6382,True,285.6000,0.0000
1773224689.048910,258.5732,4.1807,-0.2401,268.1449,0.0066,0.0054,3.4403,0.0185,268.5696,2.5265,-0.001915,-0.490907,3.4403,True,285.6600,0.0000
1773224689.142617,259.0831,4.2414,-0.2388,268.5460,-0.0322,0.0047,3.4065,0.0161,269.2369,-1.7976,-0.006916,-0.479555,3.4066,True,286.0800,0.0000
1773224689.250256,259.5002,2.1274,-0.0281,268.7384,0.0586,0.0066,3.4882,0.0230,269.2369,-1.7976,-0.006227,-0.359835,3.4883,True,286.3800,0.0000
1773224689.348992,259.8541,2.0278,-0.0265,269.0585,-0.0168,0.0022,3.6410,0.0079,271.4246,-0.2336,0.005520,-0.469677,3.6410,True,286.7400,0.0000
1773224689.446255,261.0240,1.8791,-0.0281,269.2934,-0.0959,-0.0010,3.4397,-0.0034,271.4246,-0.2336,-0.004177,-0.351707,3.4397,True,287.2200,0.0000
1773224689.557940,261.3810,1.7799,-0.0285,269.5047,-0.0445,-0.0036,3.2502,-0.0117,266.2959,-0.2901,-0.009121,-0.284280,3.2502,True,287.6400,0.0000
1773224689.656604,261.4403,1.7636,-0.0286,269.5047,-0.0445,-0.0036,3.2502,-0.0117,266.2959,-0.2901,-0.008045,-0.348428,3.2502,True,288.1200,0.0000
1773224689.762320,259.3873,1.7295,-0.0150,269.7054,-0.0557,0.0016,3.2300,0.0053,266.2959,-0.2901,-0.003960,-0.330189,3.2300,True,288.6000,0.0000
1773224689.836266,259.7337,1.6188,-0.0154,269.7662,-0.0359,-0.0094,3.3570,-0.0316,269.9080,-3.4093,-0.003189,-0.306665,3.3572,True,289.1400,0.0000
1773224690.047364,260.5183,0.0542,-0.0141,269.9410,-0.0280,-0.0005,3.2796,-0.0017,269.9080,-3.4093,-0.001061,-0.337803,3.2796,True,290.0400,0.0000
1773224690.147331,261.9549,0.5853,-0.0831,270.3538,0.0181,-0.0005,3.2692,-0.0017,272.7472,0.4782,-0.012046,-0.382348,3.2692,True,290.5800,0.0000
1773224690.302898,262.3933,0.5305,-0.0836,270.3392,-0.0057,0.0005,3.3906,0.0017,272.7472,0.4782,-0.005594,-0.316872,3.3907,True,291.3600,0.0000
1773224690.472769,263.3144,1.7039,-0.1835,270.9271,-0.0441,-0.0086,3.1331,-0.0271,272.7472,0.4782,0.007553,-0.219117,3.1332,True,292.1400,0.0000
1773224690.560320,262.6137,-0.6122,0.0397,270.9618,-0.0559,-0.0035,3.1458,-0.0112,271.2748,-4.6899,-0.009530,-0.268284,3.1458,True,292.3800,0.0000
1773224690.679196,263.0814,-0.8071,0.0291,271.4001,-0.0497,-0.0021,3.1327,-0.0067,274.5968,0.4804,-0.009600,-0.234568,3.1327,True,292.9200,0.0000
1773224690.837252,264.4493,1.0310,-0.1421,271.7119,-0.1456,0.0088,3.0412,0.0267,274.5968,0.4804,0.005101,-0.177256,3.0413,True,293.5800,0.0000
1773224690.941726,265.5696,0.2934,-0.0715,271.8047,-0.0665,-0.0086,3.1130,-0.0269,276.1834,-2.4059,-0.005338,-0.222854,3.1131,True,294.1200,0.0000
1773224691.058549,265.8367,0.2395,-0.0716,272.2247,0.0766,0.0012,3.0857,0.0037,276.1716,1.1366,-0.006263,-0.294842,3.0857,True,294.7200,0.0000
1773224691.144166,266.3873,2.0212,-0.2643,272.5067,-0.0219,-0.0006,3.0738,-0.0020,274.9387,0.5417,0.002914,-0.269245,3.0738,True,295.2000,0.0000
1773224691.244718,266.8291,2.0472,-0.2105,272.8954,-0.0073,0.0008,3.0666,0.0025,274.9387,0.5417,0.003103,-0.283056,3.0666,True,295.7400,0.0000
1773224691.371703,266.4008,2.4509,-0.2278,273.1396,0.0368,0.0012,2.8999,0.0033,274.9387,0.5417,-0.002159,-0.248810,2.8999,True,296.3400,0.0000
1773224691.440933,266.7282,2.5622,-0.2283,273.4649,-0.1213,-0.0060,2.9273,-0.0176,272.5229,3.2793,-0.002639,-0.276403,2.9273,True,296.7600,0.0000
1773224691.553857,265.2916,4.1990,-0.3157,273.7724,-0.0657,-0.0006,2.9196,-0.0018,272.5229,3.2793,-0.006567,-0.188416,2.9196,True,297.3000,0.0000
1773224691.653283,265.6632,4.3868,-0.3141,273.8524,-0.0746,0.0036,3.0354,0.0109,277.2415,-1.9707,-0.007926,-0.149796,3.0355,True,297.7200,0.0000
1773224691.784388,266.5511,2.0024,-0.0792,274.2776,-0.0227,0.0013,3.0143,0.0041,276.7211,0.3222,-0.007108,-0.174823,3.0143,True,298.2000,0.0000
1773224691.844279,266.7353,2.0334,-0.1030,274.6916,-0.0765,-0.0060,3.0868,-0.0187,276.7211,0.3222,-0.012426,-0.064001,3.0869,True,298.4400,0.0000
1773224691.953021,267.0797,1.9989,-0.1023,275.3785,-0.1017,-0.0072,2.7674,-0.0200,273.2555,1.2464,0.000788,-0.078201,2.7675,True,298.9800,0.0000
1773224692.049187,266.4190,2.7557,-0.1440,275.5882,0.0713,-0.0017,2.9629,-0.0049,273.2555,1.2464,0.000243,-0.111541,2.9629,True,299.4600,0.0000
1773224692.141313,266.5852,2.0396,-0.0889,275.8779,0.0764,0.0012,2.8088,0.0032,275.9736,-0.5723,0.000812,0.082400,2.8088,True,300.4800,0.0000
1773224692.240107,266.8907,1.9686,-0.0888,276.1709,-0.0417,-0.0097,2.8729,-0.0279,275.9736,-0.5723,-0.006740,-0.023530,2.8731,True,301.1400,0.0000
1773224692.360703,268.5021,-1.2679,0.0267,276.3927,0.0628,0.0047,2.7256,0.0129,279.8971,-5.5528,-0.004724,0.144979,2.7256,True,301.6800,0.0000
1773224692.438842,268.8233,-1.7144,0.0262,276.7466,-0.0155,0.0010,2.9454,0.0029,279.8971,-5.5528,-0.009871,0.044730,2.9454,True,302.1600,0.0000
1773224692.536600,268.8587,0.2584,0.0259,276.8895,-0.0902,-0.0045,2.7240,-0.0122,278.1512,-0.2696,-0.008069,0.188884,2.7241,True,302.5800,0.0000
1773224692.636359,269.0887,0.1585,0.0256,277.0236,-0.1069,-0.0037,2.8201,-0.0105,278.1512,-0.2696,-0.002923,0.275446,2.8201,True,302.8200,0.0000
1773224692.739699,269.3801,0.0282,0.0249,277.4128,-0.0372,0.0001,2.8359,0.0004,278.0580,2.9089,-0.002853,0.203301,2.8359,True,303.4200,0.0000
1773224692.840749,269.0329,3.1164,0.1306,277.5450,-0.0037,0.0020,3.0991,0.0063,278.0580,2.9089,-0.000912,0.170113,3.0991,True,303.5400,0.0000
1773224692.941669,269.3822,3.4275,0.1316,277.7788,-0.1240,-0.0057,2.9935,-0.0170,278.4149,-0.7863,-0.003540,0.195945,2.9935,True,304.2000,0.0000
1773224693.047124,269.3949,2.2398,0.0279,277.9325,-0.0041,-0.0035,2.8453,-0.0101,278.4149,-0.7863,-0.006789,0.289880,2.8454,True,304.5600,0.0000
1773224693.136674,269.1551,0.6808,-0.0894,278.2013,0.0323,0.0039,2.8885,0.0113,278.0249,-2.7142,-0.005976,0.331177,2.8885,True,305.2800,0.0000
1773224693.238001,269.4562,0.5972,-0.0838,278.4535,0.0166,0.0024,3.2054,0.0078,278.0249,-2.7142,-0.004923,0.409802,3.2054,True,305.8200,0.0000
1773224693.335697,267.2155,3.5120,0.0780,278.8325,-0.0115,0.0025,3.0056,0.0074,273.8308,3.8622,-0.011047,0.471225,3.0056,True,306.4200,0.0000
1773224693.435646,267.5131,3.5987,0.0576,279.0884,-0.0765,0.0021,3.1039,0.0066,273.8308,3.8622,-0.002623,0.518074,3.1039,True,307.0200,0.0000
1773224693.535889,269.6004,2.5397,-0.0836,279.2886,0.0484,0.0051,3.2815,0.0167,281.2497,-0.5571,-0.001699,0.466389,3.2815,True,307.6200,0.0000
1773224693.641695,269.9278,2.5518,-0.0806,279.7447,0.0114,0.0015,3.3212,0.0050,281.2497,-0.5571,-0.004302,0.498437,3.3212,True,308.2200,0.0000
1773224693.736522,269.4935,1.2354,-0.2930,279.9396,-0.0412,-0.0059,3.1741,-0.0187,278.2609,-1.9395,-0.008401,0.516340,3.1742,True,308.7600,0.0000
1773224693.836910,269.8061,1.1183,-0.2940,280.3276,-0.1161,-0.0060,3.2275,-0.0194,278.2609,-1.9395,-0.006522,0.565383,3.2276,True,309.3600,0.0000
1773224693.948210,271.3690,-0.7740,-0.4040,280.5894,0.0074,0.0068,3.2920,0.0222,282.5219,-4.5676,-0.010805,0.612523,3.2921,True,309.8400,0.0000
1773224694.037374,271.6466,-0.9470,-0.3989,280.8259,-0.0631,-0.0064,3.3709,-0.0215,282.5219,-4.5676,-0.005107,0.607473,3.3709,True,310.1400,0.0000
1773224694.141790,271.6948,-1.3209,-0.4401,281.0647,-0.0126,-0.0008,3.2950,-0.0027,281.0423,-3.5398,-0.003742,0.576050,3.2950,True,310.7400,0.0000
1773224694.237405,272.0099,-1.5414,-0.4390,281.5161,0.0227,-0.0088,3.5336,-0.0309,281.0423,-3.5398,-0.002728,0.636207,3.5337,True,311.2800,0.0000
1773224694.336086,271.8452,1.6102,0.0043,281.7548,-0.0221,0.0032,3.5446,0.0113,280.5807,2.5196,-0.005984,0.565625,3.5447,True,311.8800,0.0000
1773224694.445276,272.2221,1.6338,0.0315,282.1478,-0.0459,0.0027,3.5620,0.0097,280.5807,2.5196,0.003067,0.602094,3.5620,True,312.4200,0.0000
1773224694.547553,272.5573,1.6396,0.0315,282.5104,0.0181,0.0030,3.4892,0.0106,282.0960,-2.7013,-0.010737,0.492785,3.4892,True,312.9000,0.0000
1773224694.638421,272.8396,0.4937,-0.0675,282.5535,-0.0789,-0.0113,3.6043,-0.0406,282.0960,-2.7013,-0.004227,0.534515,3.6046,True,313.2600,0.0000
1773224694.736254,273.1336,0.4596,-0.0677,283.0242,-0.0176,0.0005,4.0196,0.0020,282.1104,-2.8976,-0.000781,0.719101,4.0196,True,313.6800,0.0000
1773224694.838759,273.1840,-0.3279,-0.2635,283.2343,0.0504,-0.0006,3.8256,-0.0024,282.1104,-2.8976,-0.000829,0.682821,3.8256,True,314.1000,0.0000
1773224694.936706,274.3000,0.6582,0.0330,283.3697,0.0453,0.0045,3.8645,0.0174,284.6092,-0.5802,-0.001476,0.774382,3.8645,True,314.6400,0.0000
1773224695.041985,274.6144,0.6442,0.0138,283.7995,-0.0735,0.0028,3.8364,0.0109,284.6092,-0.5802,-0.002452,0.711113,3.8364,True,315.1200,0.0000
1773224695.135726,275.0950,0.6394,0.0131,284.2048,-0.0721,-0.0048,4.0029,-0.0191,280.9191,2.6140,-0.010021,0.693611,4.0029,True,315.4800,0.0000
1773224695.237051,273.6059,3.0260,0.4030,284.3424,0.0098,-0.0067,3.7923,-0.0255,280.9191,2.6140,0.002626,0.624311,3.7924,True,315.7800,0.0000
1773224695.336942,274.7089,3.8172,0.4521,284.5931,-0.0291,-0.0014,4.0274,-0.0056,285.1102,2.2687,-0.001814,0.481722,4.0274,True,316.2600,0.0000
1773224695.441758,275.0363,3.9840,0.4503,284.9107,-0.0383,-0.0037,4.0646,-0.0150,285.1102,2.2687,-0.007869,0.626742,4.0646,True,316.7400,0.0000
1773224695.537281,275.1684,3.7869,0.3887,285.2477,-0.0297,-0.0111,4.0956,-0.0453,284.4754,1.2805,-0.003391,0.631909,4.0959,True,317.3400,0.0000
1773224695.636098,275.5378,3.9463,0.3904,285.6178,-0.0121,-0.0026,4.0275,-0.0103,284.4754,1.2805,-0.002272,0.587503,4.0275,True,317.8800,0.0000
1773224695.735937,275.7446,4.1985,0.4258,285.9847,0.0190,-0.0015,4.2382,-0.0062,285.0630,2.0401,-0.012651,0.812960,4.2382,True,318.4800,0.0000
1773224695.836218,276.1153,4.3755,0.4255,286.5222,0.0421,-0.0024,4.0535,-0.0095,285.0630,2.0401,-0.003378,0.766374,4.0535,True,319.0800,0.0000
1773224695.935897,277.9467,5.0735,0.3941,286.8971,-0.0279,0.0018,4.3697,0.0079,289.1248,3.5321,-0.008626,0.834373,4.3697,True,319.6800,0.0000
1773224696.035990,278.3536,5.2501,0.3934,287.2878,-0.0406,-0.0040,4.5455,-0.0184,289.1248,3.5321,-0.015297,0.860190,4.5455,True,320.2800,0.0000
1773224696.135433,281.1804,2.6180,-0.2923,287.7437,-0.1149,0.0094,4.6718,0.0441,292.8544,-1.2208,-0.003715,0.868454,4.6720,True,320.8800,0.0000
1773224696.235667,281.6143,2.4276,-0.3359,288.1992,-0.0050,-0.0035,4.6362,-0.0160,292.8544,-1.2208,-0.001388,0.949612,4.6363,True,321.4800,0.0000
1773224696.335719,281.9720,2.2980,-0.3360,288.6962,-0.0384,0.0037,4.4429,0.0163,291.3509,1.6545,-0.007715,0.883953,4.4429,True,321.9600,0.0000
1773224696.435612,282.3587,2.8523,-0.3075,289.1984,-0.0342,-0.0018,4.8880,-0.0087,291.3509,1.6545,-0.001625,0.871037,4.8880,True,322.6800,0.0000
1773224696.538702,282.0880,2.7151,-0.3555,289.7066,0.0134,-0.0075,4.9081,-0.0369,290.7100,0.7119,-0.007826,1.086430,4.9082,True,323.2200,0.0000
1773224696.636566,282.5671,2.5436,-0.3565,290.1046,0.0132,0.0027,5.1265,0.0140,290.7100,0.7119,0.005102,1.106151,5.1265,True,323.8800,0.0000
1773224696.736039,282.2969,3.9759,-0.1062,290.7216,0.0725,0.0065,5.0375,0.0327,290.9033,3.2881,0.004431,1.244868,5.0376,True,324.4800,0.0000
1773224696.835680,282.8107,3.9036,-0.1078,291.2327,-0.0789,-0.0008,5.2306,-0.0042,290.9033,3.2881,-0.003454,1.235420,5.2306,True,325.0800,0.0000
1773224696.935730,282.1292,4.5344,-0.0025,291.6720,0.0009,0.0109,5.4164,0.0592,290.1070,3.1235,-0.006893,1.313375,5.4167,True,325.6800,0.0000
1773224697.036079,282.6670,4.5009,-0.0040,292.2824,0.0008,-0.0013,5.3950,-0.0071,290.1070,3.1235,-0.009728,1.342866,5.3950,True,326.2800,0.0000
1773224697.136046,282.6891,1.9973,-0.6389,292.7614,0.0073,-0.0018,5.8697,-0.0107,291.5585,-1.9750,0.006921,1.351651,5.8697,True,326.8800,0.0000
1773224697.235677,283.2052,1.7172,-0.6828,293.4487,0.0665,-0.0037,5.7152,-0.0214,291.5585,-1.9750,0.000614,1.565419,5.7152,True,327.4800,0.0000
1773224697.335610,284.6016,2.5090,-0.5015,293.9283,-0.1019,0.0010,6.0887,0.0063,295.0069,1.4330,0.001067,1.615385,6.0887,True,328.0800,0.0000
1773224697.435806,285.1566,2.3024,-0.4950,294.5350,0.0191,0.0036,6.0812,0.0222,295.0069,1.4330,-0.004809,1.709788,6.0812,True,328.6800,0.0000
1773224697.536267,284.8435,2.5067,-0.5052,295.0981,0.0469,-0.0042,6.0659,-0.0258,293.3813,0.9219,0.005111,1.707111,6.0660,True,329.2800,0.0000
1773224697.635634,285.4310,2.2768,-0.5065,295.7818,-0.0347,-0.0014,6.4552,-0.0090,293.3813,0.9219,-0.004934,1.729339,6.4552,True,329.8800,0.0000
1773224697.735407,286.0050,1.9627,-0.5388,296.5095,0.0650,-0.0080,6.4924,-0.0522,295.5488,-0.1691,-0.005185,1.607609,6.4926,True,330.4800,0.0000
1773224697.835575,286.6323,1.6961,-0.5412,297.1431,-0.0369,0.0023,6.7890,0.0155,295.5488,-0.1691,0.000988,1.671358,6.7890,True,331.0800,0.0000
1773224697.935771,289.0523,2.0529,-0.0975,297.8483,0.0097,-0.0031,6.9956,-0.0216,300.2449,0.1711,-0.004847,1.837234,6.9956,True,331.6800,0.0000
1773224698.035799,289.7557,1.9935,-0.0112,298.5200,-0.0536,0.0066,7.1870,0.0475,300.2449,0.1711,-0.005825,1.876184,7.1872,True,332.2800,0.0000
1773224698.141479,289.4154,2.7628,0.1430,299.1716,-0.0068,-0.0037,7.2336,-0.0267,297.7442,1.4736,-0.010167,2.013565,7.2337,True,332.8800,0.0000
1773224698.236247,290.1721,2.7287,0.1532,299.9007,-0.0348,-0.0072,7.5001,-0.0540,297.7442,1.4736,-0.002706,2.038373,7.5003,True,333.4800,0.0000
1773224698.336191,290.3370,1.3442,0.0797,300.6868,-0.0978,0.0005,7.4874,0.0036,299.1689,-2.1163,-0.010426,2.123079,7.4874,True,334.0800,0.0000
1773224698.435688,291.1347,1.3607,0.1848,301.5095,-0.0692,0.0008,8.0105,0.0063,299.1689,-2.1163,-0.014150,2.059949,8.0105,True,334.6800,0.0000
1773224698.539772,292.8393,3.4431,0.7738,302.3639,-0.0026,0.0038,8.2260,0.0311,303.3151,3.0879,0.003772,2.226577,8.2260,True,335.2200,0.0000
1773224698.635809,293.5600,4.0162,1.2701,303.1839,-0.0251,-0.0019,8.3400,-0.0157,303.3151,3.0879,0.004946,2.114284,8.3400,True,335.7600,0.0000
1773224698.735878,294.0656,4.6448,1.6176,303.9869,-0.0406,0.0076,8.5204,0.0644,306.0496,-0.0031,-0.005687,2.145168,8.5207,True,336.1800,0.0000
1773224698.836331,295.9000,4.1974,1.6427,304.4447,-0.0898,0.0051,8.5747,0.0441,306.0496,-0.0031,-0.004731,1.911948,8.5748,True,336.4200,0.0000
1773224698.941305,295.6042,5.4037,2.9557,305.2761,-0.0136,-0.0020,8.8331,-0.0176,305.7927,0.1949,-0.001588,1.872157,8.8331,True,337.1400,0.0000
1773224699.038136,292.9303,4.2732,2.1929,305.7154,-0.0883,-0.0023,8.9871,-0.0210,305.7927,0.1949,0.008640,1.619707,8.9871,True,337.6200,0.0000
1773224699.182233,293.1834,4.5621,1.8976,306.6695,0.0215,0.0020,9.0710,0.0182,308.7516,2.0053,-0.005594,1.722255,9.0710,True,338.1600,0.0000
1773224699.235957,292.1312,5.2331,1.4605,307.2256,-0.0472,0.0038,9.2152,0.0353,308.7516,2.0053,-0.000561,1.482049,9.2153,True,338.7000,0.0000
1773224699.335659,295.8535,6.1968,2.2806,308.1355,0.0573,-0.0045,9.3036,-0.0418,309.1043,1.4627,-0.002169,1.389669,9.3037,True,339.3000,0.0000
1773224699.437630,295.4683,6.4593,-0.3542,309.1171,-0.0385,0.0011,9.5308,0.0108,309.1043,1.4627,0.003022,1.340380,9.5308,True,339.8400,0.0000
1773224699.535850,298.4164,6.0214,-0.3636,310.0239,-0.1080,-0.0086,9.6842,-0.0834,314.0096,1.0607,-0.000640,1.228088,9.6846,True,340.4400,0.0000
1773224699.635620,298.7684,5.2482,-1.4701,310.9168,-0.0235,0.0049,9.6878,0.0472,314.0096,1.0607,0.000051,1.111158,9.6879,True,341.0400,0.0000
1773224699.738856,299.2378,3.8205,-1.6198,311.9550,-0.0914,-0.0035,9.9527,-0.0343,311.1094,0.4099,-0.008325,1.123073,9.9528,True,341.6400,0.0000
1773224699.835839,299.0135,2.8348,-1.6561,312.9141,0.0444,-0.0053,10.0649,-0.0537,311.1094,0.4099,0.000668,0.920807,10.0650,True,342.2400,0.0000
1773224699.935979,299.6087,1.8424,-1.6543,313.9776,-0.0615,0.0035,9.9634,0.0344,311.8418,0.1963,0.001391,0.837509,9.9635,True,342.8400,0.0000
1773224700.053822,299.5427,0.8428,-1.4912,314.8798,-0.0189,-0.0080,9.9588,-0.0793,311.8418,0.1963,0.001219,0.767648,9.9591,True,343.2600,0.0000
1773224700.150827,299.5132,0.6355,-1.4912,314.8798,-0.0189,-0.0080,9.9588,-0.0793,311.8418,0.1963,-0.001208,0.737331,9.9591,True,343.3200,0.0000
1773224700.244776,299.4789,0.2245,-1.4678,315.7270,-0.0541,0.0041,10.2834,0.0425,315.1764,3.5064,-0.015981,0.684112,10.2834,True,343.5600,0.0000
1773224700.338158,302.8815,-0.2260,-0.2869,317.0984,-0.0255,0.0022,10.1856,0.0227,316.2862,-1.4185,-0.007560,0.522672,10.1856,True,344.1000,0.0000
1773224700.445585,305.4464,-1.0731,0.1336,317.9539,0.0339,0.0082,10.3306,0.0846,316.2862,-1.4185,-0.001204,0.332194,10.3309,True,345.0000,0.0000
1773224700.546744,306.7067,-1.6700,0.2854,318.5691,-0.0634,-0.0010,10.1860,-0.0099,318.2878,0.1704,-0.000100,0.281943,10.1860,True,345.3000,0.0000
1773224700.640531,308.5564,0.5526,1.4498,318.8725,-0.1110,0.0086,10.3589,0.0890,318.2878,0.1704,0.003981,0.187366,10.3593,True,345.5400,0.0000
1773224700.735841,307.9137,2.6840,0.0766,319.5314,-0.0137,-0.0067,10.2905,-0.0688,320.4398,-0.9892,-0.001052,0.072602,10.2908,True,346.1400,0.0000
1773224700.836149,309.2752,2.5229,1.7268,320.4703,-0.0477,0.0027,10.2736,0.0278,320.4398,-0.9892,0.002450,-0.045381,10.2736,True,346.7400,0.0000
1773224700.935550,309.8037,3.4555,-2.2333,321.5597,-0.0386,0.0071,10.2481,0.0728,322.6271,-0.3660,-0.002995,-0.147314,10.2483,True,347.3400,0.0000
1773224701.035649,309.3829,2.4546,1.8799,322.6222,-0.0797,0.0047,10.2338,0.0477,322.6271,-0.3660,0.002500,-0.324744,10.2340,True,347.9400,0.0000
1773224701.135982,310.2530,3.7494,-1.9994,323.6532,0.0179,0.0087,10.2794,0.0891,323.9551,0.6935,-0.005653,-0.301695,10.2798,True,348.5400,0.0000
1773224701.236298,310.2696,2.6744,2.7276,324.6784,-0.0878,-0.0030,10.3288,-0.0305,323.9551,0.6935,-0.005487,-0.424714,10.3288,True,349.1400,0.0000
1773224701.336878,310.7198,2.9960,-0.7125,325.6759,-0.0353,-0.0010,10.1518,-0.0099,325.2621,0.1217,-0.008964,-0.561340,10.1518,True,349.7400,0.0000
1773224701.436231,310.7574,2.2161,2.7227,326.5694,-0.0645,-0.0020,10.0416,-0.0198,325.2621,0.1217,-0.001945,-0.634040,10.0416,True,350.3400,0.0000
1773224701.535862,312.1519,2.6075,2.6863,327.5860,0.0073,0.0011,10.0333,0.0109,328.6248,0.1432,-0.004358,-0.686405,10.0333,True,350.8200,0.0000
1773224701.635598,311.2367,3.0505,2.6883,328.7181,-0.0380,-0.0054,10.0121,-0.0541,328.6248,0.1432,-0.004886,-0.765199,10.0122,True,351.5400,0.0000
1773224701.749367,310.4983,3.4227,2.6771,329.6736,-0.0986,-0.0019,9.6304,-0.0184,333.1486,0.4758,-0.001088,-0.912562,9.6304,True,351.9000,0.0000
1773224701.836468,312.7717,3.6962,2.7428,330.4397,-0.0522,-0.0055,9.6835,-0.0537,333.1486,0.4758,-0.008325,-1.049837,9.6837,True,352.6200,0.0000
1773224701.935549,314.5767,2.9416,2.7429,331.4236,-0.0624,-0.0054,9.4129,-0.0510,332.1503,-2.6632,-0.011398,-1.125162,9.4130,True,353.2200,0.0000
1773224702.035454,313.6901,3.3500,2.7381,332.3296,-0.0695,0.0035,9.6541,0.0333,332.1503,-2.6632,0.001211,-1.090179,9.6541,True,353.8200,0.0000
1773224702.135434,315.3359,3.1733,2.7290,333.3017,-0.0181,0.0012,9.4034,0.0114,332.3282,-0.9274,0.003421,-1.215796,9.4034,True,354.4200,0.0000
1773224702.236082,314.4572,3.5617,2.7408,334.2728,-0.0785,-0.0023,9.3017,-0.0214,332.3282,-0.9274,0.007155,-1.154642,9.3018,True,355.0200,0.0000
1773224702.336939,317.5130,2.8370,2.7532,335.0796,0.0322,0.0035,9.0723,0.0314,338.5087,-2.8148,-0.006181,-1.092256,9.0723,True,355.6200,0.0000
1773224702.435734,316.7664,3.3654,2.6970,336.0693,-0.1022,-0.0082,9.0207,-0.0741,338.5087,-2.8148,0.000025,-1.008100,9.0210,True,356.2200,0.0000
1773224702.535749,320.7916,4.3734,2.6958,336.9837,-0.0023,0.0024,8.9277,0.0214,333.5850,2.2404,0.003622,-0.948097,8.9277,True,356.8200,0.0000
1773224702.635517,320.0612,4.9187,2.6544,337.8411,-0.0954,0.0064,8.8221,0.0567,333.5850,2.2404,-0.000736,-0.904476,8.8223,True,357.4200,0.0000
1773224702.737518,319.4530,5.3566,2.6388,338.7247,-0.0405,-0.0050,8.8639,-0.0447,338.3334,0.7234,-0.010746,-0.872041,8.8640,True,357.8400,0.0000
1773224702.835997,323.2648,4.8126,2.6312,339.5958,0.0649,-0.0028,8.6711,-0.0247,338.3334,0.7234,0.000933,-0.751691,8.6711,True,358.5000,0.0000
1773224702.936203,325.8393,5.3388,2.6343,340.2624,-0.0498,-0.0025,8.6565,-0.0218,339.3400,2.8763,0.003452,-0.725791,8.6565,True,359.1000,0.0000
1773224703.035490,325.2197,5.9851,2.5843,341.0988,-0.0347,-0.0049,8.6025,-0.0419,339.3400,2.8763,0.001793,-0.562622,8.6026,True,359.7000,0.0000
1773224703.135633,328.1419,4.4471,2.5760,342.0481,-0.0434,0.0033,8.4472,0.0276,342.0566,-0.2861,-0.003339,-0.614904,8.4472,True,360.0000,0.0000
1773224703.235860,327.5136,5.0408,2.5715,342.8231,-0.0084,-0.0094,8.4362,-0.0796,342.0566,-0.2861,-0.004425,-0.594458,8.4366,True,360.0000,0.0000
1773224703.335654,330.0093,5.1089,2.6749,343.7665,-0.1664,0.0002,8.3324,0.0016,343.8034,2.1633,-0.000984,-0.520284,8.3324,True,360.0000,0.0000
1773224703.435522,329.4047,5.7253,2.6286,344.4734,0.0298,0.0077,8.2556,0.0633,343.8034,2.1633,-0.004293,-0.549372,8.2559,True,360.0000,0.0000
1773224703.536117,332.6944,4.3955,2.6116,345.4188,-0.1037,-0.0049,8.2846,-0.0410,346.8359,-0.0598,0.011009,-0.423890,8.2847,True,360.0000,0.0000
1773224703.636068,332.0426,4.9944,2.6120,346.2785,-0.0163,0.0007,8.0644,0.0059,346.8359,-0.0598,-0.005495,-0.440435,8.0644,True,360.0000,0.0000
1773224703.735989,334.9752,4.1368,2.6140,346.9825,-0.0805,0.0028,8.3436,0.0231,349.1007,-0.0181,-0.005604,-0.566001,8.3436,True,360.0000,0.0000
1773224703.838646,334.3530,4.7435,2.6098,347.6705,0.0271,0.0027,8.2656,0.0227,349.1007,-0.0181,-0.002328,-0.504635,8.2656,True,360.0000,0.0000
1773224703.938781,336.0369,3.2312,2.6038,348.4401,-0.0674,0.0049,7.9785,0.0394,348.4338,-1.2722,0.002027,-0.459387,7.9785,True,360.0000,0.0000
1773224704.035751,335.3808,3.7388,2.6327,349.3651,-0.1472,0.0033,8.0469,0.0263,348.4338,-1.2722,-0.009038,-0.522762,8.0470,True,360.0000,0.0000
1773224704.136020,338.0154,6.1062,2.7006,350.0986,-0.0777,-0.0011,8.0157,-0.0085,351.6541,5.4373,-0.002072,-0.483065,8.0157,True,360.0000,0.0000
1773224704.235666,337.4814,6.7552,2.6473,350.9265,-0.1197,-0.0004,7.9774,-0.0029,351.6541,5.4373,-0.004334,-0.448499,7.9774,True,360.0000,0.0000
1773224704.335638,338.6769,4.1628,2.7069,351.7464,0.0191,0.0069,8.0937,0.0556,350.6177,-1.4432,-0.009039,-0.474915,8.0939,True,360.0000,0.0000
1773224704.436342,338.0403,4.7007,2.7117,352.4603,-0.0618,-0.0086,7.8696,-0.0677,350.6177,-1.4432,0.006137,-0.605906,7.8699,True,360.0000,0.0000
1773224704.535887,340.4959,1.8074,2.8962,353.2806,-0.0670,0.0070,7.8570,0.0547,354.0715,-3.8747,0.003417,-0.721151,7.8572,True,360.0000,0.0000
1773224704.637014,339.7748,2.1610,2.9104,354.0623,-0.0883,-0.0030,7.6735,-0.0229,354.0715,-3.8747,-0.005151,-0.695146,7.6735,True,360.0000,0.0000
1773224704.735531,342.1262,1.7890,2.9148,354.8127,-0.0382,0.0017,7.6340,0.0129,355.7609,-1.4165,-0.004000,-0.808168,7.6340,True,360.0000,0.0000
1773224704.836115,341.4107,2.1639,2.9153,355.5541,-0.0781,0.0015,7.5625,0.0113,355.7609,-1.4165,-0.004999,-0.816202,7.5625,True,360.0000,0.0000
1773224704.935613,342.9755,1.7004,2.9369,356.4063,-0.0648,0.0038,7.5719,0.0286,355.5993,-1.4443,-0.003497,-0.954173,7.5719,True,360.0000,0.0000
1773224705.036019,342.2732,2.0518,2.9330,357.0106,-0.0479,-0.0046,7.3168,-0.0336,355.5993,-1.4443,-0.011231,-1.170746,7.3169,True,360.0000,0.0000
1773224705.141455,344.3831,4.2102,2.9775,357.7598,-0.1768,0.0023,7.4132,0.0172,357.1736,3.6079,0.000915,-1.500618,7.4133,True,360.0000,0.0000
1773224705.235982,343.7394,4.6689,2.9499,358.5957,-0.0759,-0.0011,7.1372,-0.0077,357.1736,3.6079,0.001689,-1.586054,7.1372,True,360.0000,0.0000
1773224705.338636,346.1703,4.2612,2.9516,359.2182,-0.0526,0.0003,6.8683,0.0022,359.9989,0.8684,0.001010,-1.954715,6.8683,True,360.0000,0.0000
1773224705.435672,345.6051,4.6231,2.9517,359.9097,-0.0726,-0.0069,6.7643,-0.0467,359.9989,0.8684,-0.002396,-2.264705,6.7645,True,360.0000,0.0000
1773224705.539482,347.9871,4.0635,2.9735,360.4986,-0.0573,0.0048,6.4401,0.0312,361.0849,0.9023,-0.012660,-2.727838,6.4402,True,360.0000,0.0000
1773224705.643794,347.3823,4.4067,2.9893,361.1400,-0.0481,0.0036,6.3494,0.0230,361.0849,0.9023,-0.009674,-2.714855,6.3495,True,360.0000,0.0000
1773224705.743283,350.6397,4.0000,3.0022,361.6173,-0.0917,0.0005,6.0833,0.0031,364.8082,0.9852,0.003667,-3.109327,6.0833,True,360.0000,0.0000
1773224705.836438,350.0821,4.3573,2.9935,362.1718,0.0051,-0.0051,5.4433,-0.0277,364.8082,0.9852,-0.001587,-3.391600,5.4434,True,360.0000,0.0000
1773224705.935802,350.4488,3.9867,3.0464,362.7040,-0.0223,0.0006,5.2721,0.0032,361.2738,1.2405,-0.004689,-3.283780,5.2721,True,360.0000,0.0000
1773224706.035648,349.9324,4.2339,3.0575,363.3072,0.0023,0.0047,5.1063,0.0238,361.2738,1.2405,-0.006934,-3.264714,5.1063,True,360.0000,0.0000
1773224706.136226,351.7050,3.1832,-3.1048,363.6448,-0.0777,0.0004,4.7791,0.0021,364.1654,0.0585,0.001494,-3.161546,4.7791,True,360.0000,0.0000
1773224706.235577,351.2445,3.2261,-3.0755,364.1906,-0.0241,-0.0021,4.4327,-0.0094,364.1654,0.0585,-0.002002,-3.093018,4.4328,True,360.4800,0.0000
1773224706.335894,352.3400,1.8061,-2.9943,364.6290,0.0277,-0.0074,4.0308,-0.0298,364.1133,-1.6163,0.002307,-2.919663,4.0309,True,360.9000,0.0000
1773224706.443098,352.0435,1.7030,-2.9503,364.8663,-0.0789,0.0037,3.9332,0.0147,364.1133,-1.6163,0.005350,-2.883270,3.9333,True,361.2600,0.0000
1773224706.740809,353.1817,0.3907,-2.8625,364.8663,-0.0789,0.0037,3.9332,0.0147,364.1133,-1.6163,-0.004545,-2.597259,3.9333,True,362.5200,0.0000
1773224706.966391,353.4393,1.9310,-2.9358,365.2575,-0.1200,-0.0052,3.6482,-0.0190,364.9405,-2.5566,-0.002684,-2.364995,3.6482,True,363.7200,0.0000
1773224707.044867,353.3669,1.9213,-2.9357,365.3003,-0.0714,0.0012,3.6739,0.0046,364.3178,1.4270,0.004770,-2.290127,3.6739,True,364.1400,0.0000
1773224707.138362,353.2286,1.9844,-2.9772,365.7155,-0.0367,0.0022,3.3417,0.0072,361.9004,2.6741,-0.003556,-2.251272,3.3418,True,364.5600,0.0000
1773224707.250291,352.5026,3.4332,-2.9980,366.4451,-0.0309,-0.0039,2.8255,-0.0110,366.4788,1.7371,-0.008006,-2.147497,2.8255,True,364.9200,0.0000
1773224707.341705,353.5959,3.6876,-2.9187,367.0353,-0.0701,0.0017,2.1634,0.0038,368.3670,-2.0578,-0.009207,-1.980262,2.1634,True,365.5200,0.0000
1773224707.437972,355.5392,1.9620,-2.8618,367.2311,-0.0480,-0.0100,2.0992,-0.0209,368.3670,-2.0578,-0.013428,-1.911120,2.0993,True,366.0600,0.0000
1773224707.547565,355.4339,1.9481,-2.8642,367.3328,-0.0383,-0.0031,1.9896,-0.0063,367.0650,2.4801,-0.006050,-1.882822,1.9896,True,366.2400,0.0000
1773224707.654502,355.3054,1.9278,-2.8642,367.4357,0.0019,-0.0077,1.7672,-0.0136,367.0650,2.4801,-0.002674,-1.675249,1.7673,True,366.5400,0.0000
1773224707.735903,355.8998,3.3348,-2.9407,367.6166,-0.0827,0.0006,1.7827,0.0011,367.4000,-0.0523,0.002125,-1.570483,1.7827,True,367.0800,0.0000
1773224707.836481,356.6063,2.6093,-2.8474,367.7745,0.0223,-0.0069,1.4865,-0.0102,367.4000,-0.0523,0.002552,-1.553936,1.4865,True,367.5000,0.0000
1773224707.938834,356.4347,2.4859,-2.8169,367.9103,-0.1150,0.0007,1.4542,0.0010,370.6924,2.0039,0.003267,-1.475207,1.4542,True,368.0400,0.0000
1773224708.036252,358.3829,3.2373,-2.8365,368.0278,-0.0625,-0.0060,1.3582,-0.0082,370.6924,2.0039,-0.004933,-1.272261,1.3582,True,368.5200,0.0000
1773224708.157361,358.2796,3.2137,-2.8387,368.0010,-0.0575,-0.0038,1.5368,-0.0059,364.7605,-3.7196,-0.007969,-1.229512,1.5368,True,368.7600,0.0000
1773224708.248293,356.8794,0.6718,-2.7336,368.0129,-0.0658,-0.0066,1.3655,-0.0090,364.7605,-3.7196,0.007741,-1.303158,1.3655,True,368.9400,0.0000
1773224708.336818,356.7922,0.3260,-2.7083,368.2010,-0.1420,-0.0062,1.1375,-0.0071,370.8410,0.1911,-0.006857,-1.247574,1.1375,True,369.6600,0.0000
1773224708.441003,358.6490,0.9890,-2.7039,368.2630,-0.0326,0.0001,1.0619,0.0001,370.8410,0.1911,-0.009051,-1.234144,1.0619,True,370.3200,0.0000
1773224708.536086,359.1561,0.9636,-2.6989,368.2792,-0.0507,-0.0091,0.8331,-0.0076,369.4916,-0.9200,-0.003867,-1.210867,0.8331,True,370.9200,0.0000
1773224708.636910,359.1263,0.7791,-2.6986,368.3606,-0.0370,-0.0020,0.9603,-0.0019,369.4916,-0.9200,0.000594,-1.179817,0.9603,True,371.5200,0.0000
1773224708.735867,359.3724,1.7810,-2.7678,368.4710,-0.0015,0.0024,0.6654,0.0016,369.5316,0.8659,-0.008176,-1.381022,0.6654,True,372.1200,0.0000
1773224708.836057,359.3247,1.7136,-2.7865,368.5582,0.0005,-0.0010,0.4472,-0.0005,369.5316,0.8659,0.000161,-1.367794,0.4472,True,372.7200,0.0000
1773224708.940151,360.5962,1.5277,-2.7644,368.5673,-0.0692,-0.0050,0.4693,-0.0023,371.7494,-0.5201,-0.001445,-1.349364,0.4693,True,373.3200,0.0000
1773224709.035682,360.6115,1.3769,-2.7463,368.6947,-0.0593,0.0060,0.4083,0.0025,371.7494,-0.5201,-0.004845,-1.274677,0.4083,True,373.9200,0.0000
1773224709.135568,359.1584,1.4228,-2.7946,368.5751,-0.0691,0.0007,0.1294,0.0001,367.2175,-0.7224,-0.001168,-1.395461,0.1294,True,374.5200,0.0000
1773224709.237165,359.1506,1.4037,-2.8144,368.5633,-0.0994,-0.0040,0.0519,-0.0002,367.2175,-0.7224,-0.006789,-1.450284,0.0519,True,375.1200,0.0000
1773224709.338745,359.3947,2.7590,-2.9098,368.6623,0.0087,0.0017,0.0908,0.0002,369.4963,1.7194,0.001486,-1.514772,0.0908,True,375.7200,0.0000
1773224709.438594,359.3582,2.8482,-2.9216,368.7813,-0.0076,-0.0036,0.0493,-0.0002,369.4963,1.7194,-0.004593,-1.608073,0.0493,True,376.3200,0.0000
1773224709.535906,357.9269,3.2910,-2.9591,368.7315,-0.0579,-0.0020,-0.0487,0.0001,366.0604,1.3388,-0.008650,-1.696968,0.0487,True,376.9200,0.0000
1773224709.635990,357.8901,3.4297,-2.9666,368.6353,-0.1268,-0.0012,0.0401,-0.0000,366.0604,1.3388,0.000647,-1.702324,0.0401,True,377.5200,0.0000
1773224709.740792,357.7652,3.4186,-2.9567,368.6680,-0.0920,0.0005,-0.0862,-0.0000,367.3391,1.1514,0.000415,-1.489140,0.0862,True,378.1200,0.0000
1773224709.839291,357.7197,3.5286,-2.9556,368.6100,-0.0758,0.0055,-0.2239,-0.0012,367.3391,1.1514,-0.003027,-1.272193,0.2239,True,378.6600,0.0000
1773224709.942447,357.7240,0.7123,-2.8738,368.7089,-0.0337,0.0012,-0.0092,-0.0000,367.2829,-4.0196,0.002218,-1.201915,0.0092,True,379.2000,0.0000
1773224710.044276,357.7263,0.6701,-2.8648,368.6063,-0.0508,-0.0066,-0.0166,0.0001,367.2829,-4.0196,-0.006931,-1.227511,0.0166,True,379.8000,0.0000
1773224710.136350,357.7164,0.6453,-2.8650,368.6279,0.0480,-0.0043,0.0803,-0.0003,369.3465,0.8589,-0.002754,-1.020206,0.0803,True,380.1600,0.0000
1773224710.251078,358.5912,1.7887,-2.8958,368.5811,0.0133,0.0123,0.0241,0.0003,369.3465,0.8589,-0.006792,-1.165634,0.0241,True,380.4000,0.0000
1773224710.358195,358.5822,1.7885,-2.8960,368.5701,-0.0676,0.0006,-0.1058,-0.0001,369.3465,0.8589,-0.006558,-1.017126,0.1058,True,380.6400,0.0000
1773224710.440789,358.5810,1.7898,-2.8948,368.7095,0.0144,0.0052,0.0223,0.0001,367.0833,0.1931,-0.009787,-0.949973,0.0223,True,380.8200,0.0000
1773224710.536739,358.0008,2.1098,-2.9225,368.6657,0.0111,-0.0082,-0.0114,0.0001,367.9209,-0.2752,0.001467,-0.870100,0.0114,True,381.4200,0.0000
1773224710.635638,357.9803,2.1344,-2.9271,368.7272,-0.0132,-0.0004,-0.0319,0.0000,367.9209,-0.2752,-0.009995,-0.824104,0.0319,True,381.6000,0.0000
1773224710.774363,358.0934,1.9909,-2.9115,368.6442,-0.0316,-0.0041,0.0968,-0.0004,369.1139,2.7038,-0.004496,-0.894730,0.0968,True,381.8400,0.0000
1773224710.855988,358.0681,1.9893,-2.9075,368.6442,-0.0316,-0.0041,0.0968,-0.0004,369.1139,2.7038,-0.003700,-0.715067,0.0968,True,382.3200,0.0000
1773224711.063848,358.0629,1.9909,-2.9039,368.6460,0.0110,0.0069,-0.1222,-0.0008,369.1139,2.7038,-0.002478,-0.572734,0.1222,True,383.1600,0.0000
1773224711.264036,358.0632,3.4652,-2.9678,368.6555,0.0096,-0.0096,-0.1602,0.0015,367.1892,0.8899,-0.007338,-0.218169,0.1602,True,383.9400,0.0000
1773224711.354853,358.9111,4.7703,-2.9639,368.7003,-0.0476,0.0002,0.1022,0.0000,370.7673,-0.4984,-0.000753,-0.405521,0.1022,True,384.3600,0.0000
1773224711.444865,358.8773,4.8876,-2.9725,368.6806,-0.0975,-0.0003,-0.0341,0.0000,370.7673,-0.4984,-0.013544,-0.155587,0.0341,True,384.7800,0.0000
1773224711.535706,359.9164,3.1133,-2.8481,368.5945,-0.0580,-0.0060,-0.0383,0.0002,365.4172,-1.5796,0.000281,-0.103508,0.0383,True,385.6200,0.0000
1773224711.635863,358.0284,1.7464,-2.8052,368.7131,-0.0376,0.0086,-0.0098,-0.0001,365.4172,-1.5796,-0.009033,-0.032621,0.0098,True,386.5200,0.0000
1773224711.744945,360.0383,1.5207,-2.7698,368.6876,-0.0918,-0.0003,-0.0474,0.0000,371.9516,-0.5773,0.004913,0.083465,0.0474,True,387.0000,0.0000
1773224711.844363,360.0967,1.3634,-2.7336,368.6252,-0.0940,0.0024,0.0487,0.0001,371.9516,-0.5773,-0.001958,0.021397,0.0487,True,387.4800,0.0000
1773224711.938992,360.4499,0.3236,-2.7371,368.6652,0.0102,-0.0060,0.0541,-0.0003,370.3854,-2.6388,0.000413,0.083361,0.0541,True,388.0200,0.0000
1773224712.046480,360.5149,0.1514,-2.7299,368.6286,-0.0897,0.0056,-0.0435,-0.0002,370.3854,-2.6388,-0.000549,-0.014490,0.0435,True,388.3200,0.0000
1773224712.136497,360.5582,0.0138,-2.7290,368.7216,-0.1269,-0.0074,0.1746,-0.0013,368.6673,0.0587,-0.000413,-0.000679,0.1746,True,388.9200,0.0000
1773224712.242342,359.6828,1.2909,-2.9120,368.6467,-0.0255,-0.0051,-0.1108,0.0006,368.6673,0.0587,-0.009629,0.074265,0.1108,True,389.3400,0.0000
1773224712.336059,359.6835,1.2838,-2.9080,368.7449,-0.0339,-0.0055,-0.1449,0.0008,366.6262,0.0322,-0.002851,0.068520,0.1449,True,389.7000,0.0000
1773224712.435889,358.3582,1.8678,-2.9708,368.7044,-0.1000,0.0029,0.0750,0.0002,366.6262,0.0322,-0.000389,0.088841,0.0750,True,390.1800,0.0000
1773224712.563515,358.3582,1.8678,-2.9708,368.7044,-0.1000,0.0029,0.0750,0.0002,366.6262,0.0322,-0.000389,0.088841,0.0750,True,390.1800,0.0000
1773224712.671146,358.3397,1.9154,-2.9642,368.7697,-0.1186,0.0061,0.1732,0.0011,370.0078,1.6371,-0.001807,0.269606,0.1732,True,390.5400,0.0000
1773224712.781770,359.1263,2.9135,-3.0200,368.6156,-0.1034,0.0036,0.0145,0.0001,370.0078,1.6371,-0.002498,0.084279,0.0145,True,391.3200,0.0000
1773224712.835936,359.1137,3.0436,-3.0327,368.7048,-0.0397,-0.0024,0.2086,-0.0005,371.3519,3.3650,-0.010246,0.183409,0.2086,True,391.5600,0.0000
1773224712.945334,360.2110,4.6740,-3.1024,368.6819,0.0405,-0.0023,0.1940,-0.0005,368.6611,0.9938,-0.003188,0.198545,0.1940,True,392.0400,0.0000
1773224713.066537,360.2036,4.7045,-3.1024,368.6819,0.0405,-0.0023,0.1940,-0.0005,368.6611,0.9938,0.001743,0.106248,0.1940,True,392.4000,0.0000
1773224713.150029,359.6489,3.9063,-2.9893,368.7083,0.0355,0.0053,0.1039,0.0006,368.6611,0.9938,0.003065,0.286094,0.1039,True,392.8200,0.0000
1773224713.247021,359.6031,4.0055,-2.9903,368.6799,-0.0980,-0.0104,0.1214,-0.0013,367.8419,0.4349,-0.004778,0.282800,0.1214,True,393.0000,0.0000
1773224713.365457,359.6069,4.0468,-2.9900,368.7592,-0.1129,0.0014,0.1457,0.0002,367.8419,0.4349,0.004631,0.275793,0.1457,True,393.5400,0.0000
1773224713.456615,358.9661,3.2845,-2.8976,368.8175,-0.0077,-0.0005,-0.0436,0.0000,367.4692,-3.0346,-0.003727,0.220064,0.0436,True,393.8400,0.0000
1773224713.540184,358.4742,1.2078,-2.8677,368.7581,-0.0845,-0.0000,0.0175,-0.0000,367.9956,0.4533,-0.005523,0.242003,0.0175,True,394.2600,0.0000
1773224713.708235,358.3795,1.8356,-2.8793,368.7132,0.0082,0.0040,0.3503,0.0014,367.9956,0.4533,-0.012753,0.295633,0.3503,True,394.9800,0.0000
1773224713.911858,358.3459,1.8060,-2.8843,368.7162,-0.0883,0.0028,0.2792,0.0008,368.1291,0.0017,-0.005872,0.293475,0.2792,True,395.8200,0.0000
1773224714.050281,358.3612,1.9699,-2.9010,368.7738,-0.0810,0.0014,0.0365,0.0000,368.1291,0.0017,-0.007468,0.383723,0.0365,True,396.4200,0.0000
1773224714.146177,358.8766,1.8455,-2.8686,368.7708,-0.0907,-0.0011,0.1111,-0.0001,368.6046,0.8685,0.003519,0.412435,0.1111,True,396.9000,0.0000
1773224714.265063,358.8512,1.8273,-2.8757,368.7726,-0.0094,0.0056,0.1816,0.0010,368.6046,0.8685,-0.007527,0.321581,0.1816,True,397.3800,0.0000
1773224714.348926,358.7957,2.5015,-2.9463,368.8105,-0.0769,0.0004,0.2497,0.0001,368.6046,0.8685,-0.008779,0.416846,0.2497,True,397.5600,0.0000
1773224714.676781,357.8124,1.6568,-2.8639,368.9167,-0.0948,-0.0029,0.3908,-0.0011,366.4780,-1.0514,-0.010622,0.551732,0.3908,True,399.1800,0.0000
1773224714.772896,357.7281,3.5164,-2.9250,368.8263,-0.0642,0.0065,0.2922,0.0019,367.5103,3.0501,-0.010512,0.392717,0.2922,True,399.6000,0.0000
1773224714.836991,357.6789,3.5624,-2.9316,368.8873,-0.1183,0.0029,0.3036,0.0009,369.8481,-0.6878,-0.005838,0.559467,0.3036,True,399.8400,0.0000
1773224714.936163,358.7879,2.4192,-2.8468,369.0216,-0.1465,0.0048,0.5218,0.0025,366.7416,0.5213,-0.002488,0.475039,0.5218,True,400.3200,0.0000
1773224715.046888,358.7349,2.3746,-2.8441,369.1541,0.0001,0.0018,0.5380,0.0010,366.7416,0.5213,0.002239,0.613056,0.5380,True,400.7400,0.0000
1773224715.147817,357.8948,2.5029,-2.8566,369.1325,-0.0406,0.0026,0.7528,0.0020,369.9572,-1.8531,-0.007718,0.756338,0.7528,True,401.1000,0.0000
1773224715.236102,357.8340,2.4929,-2.8628,369.2429,0.0572,-0.0086,0.6941,-0.0060,369.9572,-1.8531,-0.004941,0.650046,0.6941,True,401.5200,0.0000
1773224715.344737,358.9388,0.9824,-2.7361,369.3104,-0.0179,0.0035,0.7285,0.0025,367.9003,-1.3272,-0.013117,0.701042,0.7285,True,402.0600,0.0000
1773224715.439340,358.5902,0.7531,-2.7402,369.3505,-0.0302,-0.0069,0.8155,-0.0056,367.9003,-1.3272,-0.003822,0.690224,0.8155,True,402.5400,0.0000
1773224715.539904,359.0775,0.0472,-2.7011,369.4405,-0.0824,0.0014,0.8032,0.0012,369.3027,-2.4717,-0.004233,0.728461,0.8032,True,403.0200,0.0000
1773224715.655817,359.0950,-0.1376,-2.6743,369.4372,0.0038,0.0018,1.0232,0.0019,369.3027,-2.4717,0.000407,0.811062,1.0232,True,403.4400,0.0000
1773224715.739440,359.0787,-0.3315,-2.6738,369.5295,-0.0735,0.0008,1.0677,0.0009,367.8065,-3.2829,-0.006051,0.848561,1.0677,True,403.9800,0.0000
1773224715.848924,358.6547,-0.8340,-2.6548,369.5724,-0.0561,0.0033,1.0112,0.0033,367.8065,-3.2829,-0.002705,0.893242,1.0112,True,404.1600,0.0000
1773224715.945149,358.6442,-1.2184,-2.6520,369.6710,-0.0188,-0.0021,0.9661,-0.0020,369.0127,-1.1744,-0.001720,0.922020,0.9661,True,404.7600,0.0000
1773224716.049235,358.8979,-0.3698,-2.6375,369.6842,-0.0510,-0.0026,1.3035,-0.0034,369.0127,-1.1744,-0.016676,1.098320,1.3035,True,404.9400,0.0000
1773224716.141497,359.8203,-0.5350,-2.6438,369.8064,-0.0164,-0.0012,1.3303,-0.0016,370.6819,-2.4257,0.000946,1.009128,1.3303,True,405.6000,0.0000
1773224716.235627,359.7999,-0.7704,-2.6410,369.8971,-0.0156,0.0006,1.2815,0.0008,370.6819,-2.4257,-0.000820,1.023127,1.2815,True,406.3200,0.0000
1773224716.341553,359.7852,-0.9539,-2.6410,370.0889,-0.0807,-0.0031,1.5643,-0.0049,370.2956,-1.9941,-0.004650,1.006756,1.5643,True,406.6800,0.0000
1773224716.437945,360.0513,-0.6566,-2.6859,370.1674,-0.1266,0.0031,1.5566,0.0048,370.2956,-1.9941,-0.011783,1.028459,1.5567,True,407.2800,0.0000
1773224716.536733,359.9849,-0.8276,-2.6858,370.3802,-0.0424,0.0007,1.5950,0.0011,369.0981,-3.2169,-0.003311,1.192504,1.5950,True,407.9400,0.0000
1773224716.638799,359.6719,-1.0803,-2.6871,370.5805,-0.1180,0.0004,1.8730,0.0008,369.0981,-3.2169,-0.006240,1.075350,1.8730,True,408.5400,0.0000
1773224716.740371,360.7290,-0.4170,-2.7757,370.7120,-0.0461,0.0108,1.8505,0.0200,372.1166,-1.4868,-0.007942,1.059322,1.8506,True,409.0800,0.0000
1773224716.849409,360.6219,-0.5673,-2.7632,370.7469,-0.0897,-0.0047,2.1938,-0.0102,372.1166,-1.4868,0.002434,1.164384,2.1938,True,409.3800,0.0000
1773224716.940180,360.4551,-0.7304,-2.7677,370.9720,-0.1036,0.0017,2.0894,0.0035,371.7702,-0.5365,-0.002444,1.216694,2.0894,True,409.9200,0.0000
1773224717.037736,360.8132,0.4607,-2.9099,371.0375,-0.0602,0.0021,2.0721,0.0044,371.7702,-0.5365,0.008160,1.211254,2.0721,True,410.4000,0.0000
1773224717.144263,362.0669,0.7967,-2.9098,371.2281,-0.0780,-0.0119,1.9591,-0.0234,373.5262,-0.8349,-0.011932,1.406026,1.9592,True,410.9400,0.0000
1773224717.239300,361.8269,0.7464,-2.9100,371.5824,-0.0037,-0.0011,2.3730,-0.0026,373.5262,-0.8349,-0.005261,1.243524,2.3730,True,411.4200,0.0000
1773224717.337939,362.6771,2.3306,-2.9937,371.7066,-0.0424,0.0016,2.4450,0.0039,373.7874,1.6566,0.000757,1.341427,2.4450,True,411.9000,0.0000
1773224717.449875,362.3800,2.4305,-3.0170,371.8994,-0.0364,-0.0015,2.6596,-0.0040,373.7874,1.6566,0.001384,1.486724,2.6596,True,412.5600,0.0000
1773224717.537711,362.1947,2.4730,-3.0171,372.0973,-0.0878,-0.0067,2.5271,-0.0168,375.3120,0.9989,0.003153,1.544039,2.5272,True,412.8600,0.0000
1773224717.636095,363.5063,2.8556,-3.0275,372.2549,-0.0888,-0.0021,2.8262,-0.0058,375.3120,0.9989,-0.006313,1.471821,2.8262,True,413.4000,0.0000
1773224717.745088,363.2191,2.9212,-3.0279,372.5821,-0.0710,-0.0004,3.0390,-0.0012,374.0982,2.8562,-0.003882,1.687601,3.0390,True,413.7600,0.0000
1773224717.838932,363.4997,4.1661,-3.1226,372.7538,-0.0369,-0.0051,3.0399,-0.0154,374.0982,2.8562,-0.005781,1.562019,3.0399,True,414.0000,0.0000
1773224717.935536,362.9599,4.1636,-3.0907,373.0425,-0.0570,-0.0022,3.1568,-0.0070,372.5750,1.8478,-0.004991,1.685453,3.1569,True,414.9000,0.0000
1773224718.042101,362.6127,4.3064,-3.0903,373.3000,-0.0603,0.0040,3.2437,0.0129,372.5750,1.8478,0.000341,1.759560,3.2437,True,415.3200,0.0000
1773224718.135983,362.2534,1.7987,-2.9028,373.6017,-0.0418,-0.0079,3.2452,-0.0257,371.9598,-2.4343,-0.007312,1.820899,3.2453,True,415.7400,0.0000
1773224718.243051,361.9259,1.6749,-2.8798,373.8384,-0.0501,-0.0024,3.5742,-0.0086,371.9598,-2.4343,-0.001105,1.827626,3.5742,True,416.1600,0.0000
1773224718.337441,361.6627,1.6021,-2.8812,374.0832,-0.0515,0.0048,3.6933,0.0177,372.5629,2.2739,-0.004074,1.837969,3.6934,True,416.5800,0.0000
1773224718.439590,361.8582,2.9692,-2.9415,374.2477,-0.1044,0.0023,3.8013,0.0086,372.5629,2.2739,-0.001556,1.833816,3.8013,True,416.9400,0.0000
1773224718.537766,365.0155,2.1315,-2.7779,374.6134,-0.0803,0.0063,4.1043,0.0257,379.0981,-0.4201,-0.003215,1.908539,4.1044,True,417.4200,0.0000
1773224718.635939,364.6229,1.9055,-2.7619,375.0154,-0.0389,0.0011,4.1276,0.0046,379.0981,-0.4201,-0.003245,2.126101,4.1276,True,417.9600,0.0000
1773224718.737099,364.3316,1.7668,-2.7684,375.2103,-0.0866,0.0001,4.4194,0.0004,373.3697,-1.6045,-0.001575,2.168190,4.4194,True,418.4400,0.0000
1773224718.839451,363.7586,0.9463,-2.7331,375.6302,0.0096,0.0063,4.4983,0.0284,373.3697,-1.6045,0.000495,2.087456,4.4984,True,418.6800,0.0000
1773224718.936583,363.3129,0.6160,-2.7157,375.9749,-0.1019,-0.0033,4.6412,-0.0155,374.0831,-0.7196,-0.002209,2.204685,4.6413,True,419.1600,0.0000
1773224719.037619,363.2877,0.7213,-2.7428,376.2849,-0.0161,0.0052,4.8116,0.0250,374.0831,-0.7196,-0.003257,2.248374,4.8116,True,419.5200,0.0000
1773224719.139231,365.5296,0.0990,-2.6892,376.8241,-0.0334,-0.0032,4.8324,-0.0153,378.4097,-2.0258,-0.008443,2.219121,4.8324,True,420.4800,0.0000
1773224719.237960,365.1746,-0.1030,-2.7169,377.2195,-0.0825,-0.0031,5.0871,-0.0159,378.4097,-2.0258,-0.005709,2.337949,5.0871,True,421.0200,0.0000
1773224719.359309,364.6547,-0.4823,-2.7117,377.6381,-0.0592,0.0030,5.4104,0.0161,377.4118,0.7427,-0.003618,2.322059,5.4104,True,421.4400,0.0000
1773224719.447978,365.6567,1.0011,-2.7838,378.1329,-0.0931,-0.0051,5.4419,-0.0278,377.4118,0.7427,-0.012154,2.433667,5.4420,True,421.7400,0.0000
1773224719.538909,366.1612,2.8058,-2.9519,378.7830,-0.0076,0.0008,5.9529,0.0047,377.5129,2.7379,-0.010147,2.403197,5.9529,True,422.5800,0.0000
1773224719.642082,365.5293,2.7059,-2.9671,379.1170,-0.0820,-0.0042,6.0567,-0.0253,377.5129,2.7379,0.005897,2.396556,6.0567,True,423.0000,0.0000
1773224719.735776,365.0787,2.6263,-2.9685,379.6840,-0.0216,0.0016,6.2906,0.0098,380.6395,-1.4246,-0.002182,2.395510,6.2906,True,423.4200,0.0000
1773224719.846996,367.2096,1.0968,-2.7778,379.9983,-0.0489,0.0037,6.2105,0.0228,380.6395,-1.4246,-0.004574,2.346270,6.2105,True,423.7800,0.0000
1773224719.940719,366.7392,0.8627,-2.7830,380.4944,-0.0723,-0.0120,6.6392,-0.0799,382.0822,0.0566,-0.010421,2.302075,6.6397,True,424.0800,0.0000
1773224720.036663,368.5731,0.9780,-2.7403,380.9903,-0.0467,-0.0054,6.8107,-0.0369,382.0822,0.0566,-0.002631,2.432791,6.8108,True,424.6200,0.0000
1773224720.183032,368.1058,0.7115,-2.7404,381.4110,-0.1149,-0.0035,6.7352,-0.0236,381.0755,0.3009,-0.001512,2.492286,6.7353,True,425.0400,0.0000
1773224720.244767,369.1874,1.3084,-2.7583,382.0732,-0.1171,0.0038,7.1080,0.0271,381.0755,0.3009,-0.000368,2.570332,7.1080,True,425.2200,0.0000
1773224720.344884,368.3157,0.8413,-2.7586,382.4834,-0.0333,0.0024,7.2977,0.0172,384.4088,-1.5702,-0.002998,2.537615,7.2977,True,425.8800,0.0000
1773224720.439641,371.0683,0.2283,-2.6377,382.8390,-0.0588,0.0037,7.3646,0.0272,384.4088,-1.5702,0.002364,2.501629,7.3646,True,426.0600,0.0000
1773224720.543512,370.3847,0.6570,-2.6780,383.3251,-0.0879,-0.0043,7.3054,-0.0311,380.6009,-0.1976,0.000888,2.519215,7.3055,True,426.7800,0.0000
1773224720.639113,369.7648,0.2526,-2.6848,384.1351,-0.1556,0.0043,7.6635,0.0330,380.6009,-0.1976,-0.007301,2.645369,7.6635,True,427.3800,0.0000
1773224720.737785,373.9319,2.3682,-2.6927,384.7822,-0.0877,0.0012,7.9230,0.0093,389.3375,3.2444,0.000577,2.526408,7.9230,True,427.9800,0.0000
1773224720.843383,373.2397,1.9274,-2.6927,385.5919,-0.0830,-0.0045,8.0952,-0.0360,389.3375,3.2444,-0.003041,2.421925,8.0952,True,428.4000,0.0000
1773224720.939714,372.5347,1.4811,-2.6934,386.2173,-0.0370,-0.0048,8.3609,-0.0398,383.5898,1.0013,-0.012478,2.328664,8.3610,True,428.8200,0.0000
1773224721.057438,372.3654,2.0065,-2.7829,386.9261,0.0384,0.0043,8.5325,0.0363,383.5898,1.0013,-0.009038,2.165725,8.5326,True,429.3000,0.0000
1773224721.171240,372.3654,2.0065,-2.7829,386.9261,0.0384,0.0043,8.5325,0.0363,383.5898,1.0013,0.000742,2.217282,8.5326,True,429.4800,0.0000
1773224721.236913,371.4080,1.5359,-2.7835,387.6097,-0.0333,-0.0002,8.6163,-0.0014,387.4298,2.4035,-0.001474,2.153512,8.6163,True,429.7200,0.0000
1773224721.343530,374.2795,2.0663,-2.7182,388.8857,-0.0913,0.0009,8.8652,0.0081,386.0906,0.2558,-0.009794,1.974030,8.8652,True,430.4400,0.0000
1773224721.436928,373.9646,1.8842,-2.7185,389.1617,-0.0415,-0.0000,9.0030,-0.0001,386.0906,0.2558,0.000126,1.902847,9.0030,True,430.5600,0.0000
1773224721.539361,372.9449,1.2773,-2.7126,390.3974,0.0218,-0.0109,9.3400,-0.1019,387.7712,2.4159,-0.004153,1.857381,9.3405,True,431.2200,0.0000
1773224721.637303,374.1565,2.3454,-2.7850,391.1407,-0.0704,-0.0074,9.3020,-0.0692,387.7712,2.4159,-0.007002,1.614706,9.3023,True,432.1200,0.0000
1773224721.740527,376.5412,0.9924,-2.6391,392.1853,-0.0009,0.0037,9.6373,0.0353,389.8564,-1.4314,-0.000259,1.457793,9.6374,True,432.8400,0.0000
1773224721.839474,375.9373,0.5009,-2.6131,393.1778,-0.0734,0.0105,9.6238,0.1010,389.8564,-1.4314,0.000042,1.331118,9.6244,True,433.5000,0.0000
1773224721.936268,376.3903,0.0153,-2.5842,394.1625,-0.0839,0.0113,9.7946,0.1103,393.2837,-0.4251,-0.004467,1.269769,9.7952,True,434.1600,0.0000
1773224722.035604,375.5938,-0.6109,-2.5839,395.0636,-0.0404,-0.0031,10.1850,-0.0311,393.2837,-0.4251,-0.000615,1.194211,10.1850,True,434.7600,0.0000
1773224722.135834,377.3755,-0.9501,-2.5045,396.0457,-0.0800,0.0033,10.0996,0.0328,396.8524,-0.6853,-0.002664,1.059767,10.0997,True,435.3600,0.0000
1773224722.235902,376.6516,-1.6829,-2.4884,397.2188,-0.0227,0.0049,10.3874,0.0504,396.8524,-0.6853,-0.002340,0.948512,10.3875,True,435.9600,0.0000
1773224722.336855,378.2006,-1.7561,-2.4290,398.1059,-0.0300,-0.0027,10.3154,-0.0276,395.5287,-0.6782,-0.005272,0.761196,10.3155,True,436.5600,0.0000
1773224722.436096,377.5485,-2.5439,-2.4096,399.1341,-0.0665,-0.0047,10.3672,-0.0484,395.5287,-0.6782,-0.018639,0.716242,10.3673,True,437.1600,0.0000
1773224722.536946,381.1871,-2.5222,-2.2727,400.1880,-0.1208,-0.0074,10.5319,-0.0780,403.3460,-0.0350,-0.008064,0.724899,10.5322,True,437.7600,0.0000
1773224722.637977,380.6403,-3.4462,-2.2533,401.2134,0.0243,-0.0037,10.5191,-0.0387,403.3460,-0.0350,-0.000858,0.560737,10.5192,True,438.2400,0.0000
1773224722.736155,383.7244,-2.9128,-2.1223,402.2283,-0.0217,0.0035,10.3348,0.0365,403.5474,0.8614,-0.007345,0.412039,10.3348,True,438.9000,0.0000
1773224722.840744,383.0725,-3.6665,-2.2067,403.3777,0.0184,-0.0000,10.6733,-0.0003,403.5474,0.8614,-0.008343,0.373878,10.6733,True,439.5000,0.0000
1773224722.936037,385.6678,-3.7212,-2.0668,404.4030,0.0523,0.0027,10.7003,0.0290,403.2314,-1.8011,-0.006218,0.296527,10.7003,True,440.1000,0.0000
1773224723.036543,385.2650,-4.7305,-2.0627,405.3456,-0.0159,-0.0039,10.5514,-0.0414,403.2314,-1.8011,-0.010043,0.142217,10.5515,True,440.6400,0.0000
1773224723.135426,387.8031,-3.4590,-1.9502,406.2427,-0.0645,0.0035,10.7105,0.0380,405.0255,1.8570,0.003536,0.097323,10.7106,True,441.2400,0.0000
1773224723.236360,387.5098,-4.4943,-1.9480,407.3396,0.0485,0.0028,10.6016,0.0301,405.0255,1.8570,0.009515,-0.078438,10.6016,True,441.8400,0.0000
1773224723.338996,390.6941,-3.8339,-1.8095,408.4625,0.0334,-0.0004,10.5823,-0.0039,408.5695,0.1807,-0.012010,-0.173551,10.5823,True,442.4400,0.0000
1773224723.436545,390.5626,-4.8730,-1.8058,409.4210,0.0854,0.0037,10.5399,0.0392,408.5695,0.1807,-0.004482,-0.303490,10.5400,True,443.0400,0.0000
1773224723.535789,394.6735,-4.4379,-1.6333,410.4675,-0.0496,-0.0046,10.4875,-0.0478,413.8772,-1.0245,-0.004277,-0.353039,10.4876,True,443.6400,0.0000
1773224723.637034,394.7033,-5.5049,-1.6392,411.5740,-0.0746,-0.0076,10.6894,-0.0810,413.8772,-1.0245,-0.002244,-0.378363,10.6897,True,444.2400,0.0000
1773224723.742118,397.2535,-3.9022,-1.5390,412.5517,-0.1265,-0.0020,10.3951,-0.0212,412.8190,2.5326,-0.005356,-0.508737,10.3951,True,444.7200,0.0000
1773224723.835895,397.4203,-4.9397,-1.5367,413.5122,-0.0645,0.0023,10.6245,0.0248,412.8190,2.5326,0.002477,-0.628378,10.6245,True,445.2600,0.0000
1773224723.935695,399.2063,-3.8482,-1.4600,414.3830,-0.0401,-0.0029,10.3310,-0.0297,412.2844,0.3639,-0.003318,-0.791184,10.3310,True,445.7400,0.0000
1773224724.044057,399.4473,-4.8677,-1.4617,415.5007,-0.0326,0.0062,10.3522,0.0644,412.2844,0.3639,-0.000697,-0.832244,10.3524,True,446.4000,0.0000
1773224724.136820,402.1360,-2.7020,-1.3937,416.4115,0.0089,0.0097,9.9334,0.0963,417.1682,4.6289,-0.008073,-0.910298,9.9339,True,446.8200,0.0000
1773224724.241960,402.1808,-3.2502,-1.4230,416.7810,-0.0802,0.0069,10.2917,0.0707,417.1682,4.6289,-0.001017,-0.975467,10.2919,True,447.1200,0.0000
1773224724.337416,404.3212,-2.5625,-1.3366,417.8398,-0.0343,0.0068,10.0583,0.0689,417.2538,1.5268,0.002425,-1.146701,10.0586,True,447.7200,0.0000
1773224724.435676,404.6699,-3.4461,-1.3369,418.6113,-0.0603,0.0043,10.0950,0.0436,417.2538,1.5268,-0.003377,-1.308425,10.0951,True,448.3200,0.0000
1773224724.535754,405.6922,-2.3055,-1.2945,419.5874,-0.0761,0.0039,9.6371,0.0379,416.3234,1.5435,-0.003623,-1.370215,9.6371,True,448.9200,0.0000
1773224724.635853,406.1082,-3.2008,-1.2961,420.6528,0.0142,-0.0068,9.7716,-0.0663,416.3234,1.5435,-0.008655,-1.128238,9.7718,True,449.5200,0.0000
1773224724.738923,411.7317,2.4029,-1.0737,421.5845,-0.1303,-0.0014,9.6004,-0.0131,423.3464,4.5353,0.001660,-1.281668,9.6004,True,450.1200,0.0000
1773224724.836082,412.4012,1.7001,-1.0736,422.5618,-0.0372,-0.0042,9.3843,-0.0393,423.3464,4.5353,-0.005356,-1.092070,9.3844,True,450.7200,0.0000
1773224724.935338,413.0018,1.3838,-1.0714,423.4077,-0.0486,-0.0072,9.3768,-0.0674,422.4651,-0.2508,0.002160,-1.002614,9.3770,True,451.3200,0.0000
1773224725.035640,413.6722,0.6944,-1.0714,424.3694,-0.1602,0.0047,9.0938,0.0424,422.4651,-0.2508,0.004802,-1.116594,9.0939,True,451.9200,0.0000
1773224725.135549,414.1169,2.1058,-1.0449,425.3026,-0.0105,0.0009,9.0129,0.0082,423.1636,2.2743,-0.012092,-0.990783,9.0129,True,452.5200,0.0000
1773224725.236083,414.8411,1.4801,-1.0454,426.0558,0.0647,0.0080,9.1819,0.0732,423.1636,2.2743,-0.007741,-0.831949,9.1822,True,453.1200,0.0000
1773224725.337664,417.6348,0.9262,-0.9819,427.0448,-0.0665,-0.0035,8.8724,-0.0313,428.8058,-1.3180,0.000641,-0.915090,8.8725,True,453.7200,0.0000
1773224725.435905,418.5020,0.4131,-0.9826,427.9316,-0.0369,-0.0034,8.9263,-0.0304,428.8058,-1.3180,0.006029,-0.825571,8.9264,True,454.2600,0.0000
1773224725.536383,420.6234,2.3515,-0.8935,428.8400,-0.0352,-0.0089,8.7817,-0.0782,430.5049,2.5700,-0.006572,-0.769246,8.7821,True,454.8600,0.0000
1773224725.635956,421.6390,2.0415,-0.8951,429.5793,-0.0425,0.0029,8.6898,0.0255,430.5049,2.5700,-0.005110,-0.684621,8.6899,True,455.4600,0.0000
1773224725.736078,422.9603,2.3651,-0.8695,430.5292,-0.0247,0.0006,8.4528,0.0047,433.0567,2.6052,-0.008906,-0.690638,8.4528,True,456.0600,0.0000
1773224725.836130,424.0060,2.1188,-0.8713,431.3496,-0.0666,-0.0017,8.5332,-0.0148,433.0567,2.6052,-0.009997,-0.607209,8.5332,True,456.6600,0.0000
1773224725.935834,424.2741,1.6811,-0.9134,432.2154,-0.1153,0.0039,8.5001,0.0335,431.9262,-0.1129,-0.006728,-0.637400,8.5002,True,457.2600,0.0000
1773224726.035929,425.2383,1.3861,-0.9135,433.0341,-0.0748,-0.0057,8.3997,-0.0481,431.9262,-0.1129,-0.003940,-0.491901,8.3998,True,457.8600,0.0000
1773224726.135490,425.5088,1.0015,-0.9487,434.0032,-0.0505,0.0011,8.4708,0.0093,433.4724,-0.5122,-0.001666,-0.603543,8.4708,True,458.4600,0.0000
1773224726.236023,426.4510,0.6371,-0.9490,434.8152,-0.0558,0.0026,8.2538,0.0214,433.4724,-0.5122,-0.002902,-0.501542,8.2538,True,459.0600,0.0000
1773224726.335649,426.1809,0.9365,-0.9825,435.5475,-0.0747,0.0010,8.1959,0.0083,432.6980,1.5962,-0.006159,-0.481838,8.1959,True,459.6600,0.0000
1773224726.435823,427.0695,0.5388,-0.9825,436.2899,-0.0250,0.0034,8.2111,0.0277,432.6980,1.5962,-0.008270,-0.423727,8.2111,True,460.1400,0.0000
1773224726.535868,427.7732,0.2271,-0.9833,437.1378,-0.0189,0.0005,8.1807,0.0037,438.3097,5.1631,0.000078,-0.330188,8.1807,True,460.6800,0.0000
1773224726.637196,429.4139,4.0282,-1.1222,437.7883,-0.0515,0.0017,8.2688,0.0142,438.3097,5.1631,-0.005606,-0.310744,8.2688,True,461.3400,0.0000
1773224726.735626,431.2423,1.2852,-1.1334,438.6196,-0.0242,0.0004,8.1436,0.0035,441.8600,-2.9277,-0.009165,-0.314205,8.1436,True,461.9400,0.0000
1773224726.835677,432.0527,0.7639,-1.1336,439.4650,0.0410,-0.0021,8.2549,-0.0169,441.8600,-2.9277,0.001976,-0.248611,8.2549,True,462.5400,0.0000
1773224726.936894,430.7300,0.0629,-1.3336,440.2765,-0.0653,0.0008,7.7394,0.0059,438.5819,-1.7464,-0.003237,-0.454427,7.7394,True,463.1400,0.0000
1773224727.039491,431.4180,-0.6990,-1.3411,441.0028,-0.0250,-0.0025,7.8936,-0.0199,438.5819,-1.7464,-0.004215,-0.367436,7.8936,True,463.6800,0.0000
1773224727.136008,428.4260,-1.2505,-1.8137,441.7845,-0.0386,-0.0077,8.1189,-0.0624,435.6369,-2.6519,-0.000969,-0.318298,8.1191,True,464.2200,0.0000
1773224727.235684,428.5311,-2.1302,-1.8320,442.5276,-0.0761,-0.0019,7.9973,-0.0153,435.6369,-2.6519,0.003362,-0.233974,7.9973,True,464.8800,0.0000
1773224727.338661,429.3045,-0.4260,-1.8183,443.4010,-0.0761,0.0066,7.8791,0.0518,439.5394,0.5471,-0.002608,-0.193099,7.8793,True,465.4800,0.0000
1773224727.436709,429.4560,-1.2730,-1.8184,444.2403,-0.0484,-0.0069,8.0413,-0.0556,439.5394,0.5471,-0.001848,-0.311060,8.0415,True,466.0200,0.0000
1773224727.556873,432.9366,0.3753,-1.7773,444.8864,-0.0332,-0.0025,7.8142,-0.0195,445.9399,1.3089,-0.007153,-0.371504,7.8142,True,466.5600,0.0000
1773224727.635930,432.9101,-0.4422,-1.8893,445.5379,-0.0518,0.0069,7.8141,0.0538,445.9399,1.3089,0.003635,-0.375688,7.8143,True,467.1600,0.0000
1773224727.746959,433.5404,0.1892,-1.8827,446.4312,-0.1062,-0.0004,7.7715,-0.0032,443.7588,-0.0394,-0.007643,-0.394616,7.7715,True,467.7600,0.0000
1773224727.835824,433.6544,-0.6681,-1.8830,447.1054,-0.0683,0.0001,7.8039,0.0007,443.7588,-0.0394,-0.009037,-0.359368,7.8039,True,468.3600,0.0000
1773224727.935941,435.9077,0.4984,-1.8251,447.9181,-0.0851,0.0041,7.5815,0.0311,447.7186,0.9224,0.003916,-0.303280,7.5816,True,468.9000,0.0000
1773224728.040863,436.0136,-0.3489,-1.8630,448.6846,-0.0779,-0.0035,7.5083,-0.0264,447.7186,0.9224,-0.007872,-0.471663,7.5083,True,469.5600,0.0000
1773224728.136910,437.6060,-1.1955,-1.7942,449.3749,-0.0042,-0.0067,7.4682,-0.0504,448.6240,-3.0030,0.003748,-0.444725,7.4684,True,470.1000,0.0000
1773224728.236427,437.7134,-2.0012,-1.8385,450.1795,-0.0181,-0.0042,7.5334,-0.0318,448.6240,-3.0030,-0.006838,-0.490014,7.5335,True,470.7600,0.0000
1773224728.336536,441.5201,-1.5057,-1.8169,451.0076,0.0530,0.0015,7.2874,0.0112,454.8297,-1.9422,-0.008723,-0.579690,7.2874,True,471.3600,0.0000
1773224728.437924,441.4527,-2.2834,-1.9166,451.7560,0.0024,-0.0067,7.1596,-0.0483,454.8297,-1.9422,-0.007258,-0.595997,7.1598,True,471.9000,0.0000
1773224728.536623,441.5231,-3.0850,-1.9174,452.3937,-0.0836,0.0004,7.2506,0.0030,454.8297,-1.9422,-0.002193,-0.677486,7.2506,False,472.5000,0.0000
1773224728.636331,441.5884,-3.8409,-1.9173,453.1292,0.0112,-0.0004,7.3212,-0.0029,454.8297,-1.9422,-0.002482,-0.596229,7.3212,False,473.1600,0.0000
1773224728.738257,441.6584,-4.6338,-1.9176,453.8329,-0.0646,0.0061,7.2655,0.0444,454.8297,-1.9422,-0.000455,-0.683941,7.2656,False,473.7000,0.0000
1773224728.836904,441.7295,-5.4291,-1.9176,454.5534,-0.0826,-0.0015,7.1800,-0.0109,454.8297,-1.9422,-0.002420,-0.738260,7.1800,False,474.2400,0.0000
1773224728.943141,441.8129,-6.2809,-1.9184,455.1669,-0.0656,-0.0105,6.8913,-0.0724,454.8297,-1.9422,-0.009083,-0.556370,6.8917,False,474.7200,0.0000
1773224729.035970,441.8847,-6.9993,-1.9191,455.9213,-0.1086,0.0063,7.0422,0.0444,454.8297,-1.9422,-0.013698,-0.648017,7.0423,False,475.3800,0.0000
1773224729.136020,441.9626,-7.7530,-1.9196,456.5979,-0.0557,-0.0017,6.9135,-0.0118,454.8297,-1.9422,0.000071,-0.629267,6.9135,False,475.9800,0.0000
1773224729.237545,442.0448,-8.5175,-1.9202,457.3079,-0.0326,0.0082,6.8133,0.0557,454.8297,-1.9422,-0.005726,-0.640525,6.8135,False,476.3400,0.0000
1773224729.347129,442.1335,-9.3146,-1.9208,457.7536,-0.1455,-0.0022,6.9490,-0.0152,454.8297,-1.9422,0.002196,-0.654552,6.9490,False,476.8800,0.0000
1773224729.435925,442.2232,-10.0875,-1.9208,458.3624,-0.0766,0.0005,6.6690,0.0032,454.8297,-1.9422,0.001911,-0.738629,6.6690,False,477.4200,0.0000
1773224729.535972,442.3099,-10.8079,-1.9211,458.8415,-0.0223,-0.0003,6.6246,-0.0017,454.8297,-1.9422,0.000033,-0.633018,6.6246,False,477.9000,0.0000
1773224729.635896,442.3781,-11.4007,-1.9212,459.4462,0.0030,0.0046,6.8677,0.0313,454.8297,-1.9422,-0.001247,-0.774021,6.8678,False,478.2600,0.0000
1773224729.776546,442.3781,-11.4007,-1.9212,459.4462,0.0030,0.0046,6.8677,0.0313,454.8297,-1.9422,0.002270,-0.775719,6.8678,False,478.4400,0.0000
1773224729.841917,442.4597,-12.1544,-1.9213,460.1020,0.0025,-0.0040,6.5374,-0.0263,454.8297,-1.9422,0.001225,-0.670184,6.5374,False,478.7400,0.0000
1773224729.949730,442.5690,-13.0285,-1.9214,460.8251,-0.0999,-0.0079,6.4421,-0.0507,454.8297,-1.9422,-0.011503,-0.829849,6.4423,False,479.2800,0.0000
1773224730.044419,442.6616,-13.7400,-1.9218,461.3477,-0.1091,0.0022,6.4103,0.0143,454.8297,-1.9422,-0.003787,-0.657490,6.4103,False,479.7600,0.0000
1773224730.139372,442.8570,-15.1824,-1.9238,461.7713,-0.0777,-0.0067,6.3866,-0.0428,454.8297,-1.9422,-0.005086,-0.746412,6.3868,False,480.6600,0.0000
1773224730.236447,442.9566,-15.9039,-1.9243,462.4316,-0.0106,-0.0114,6.4352,-0.0731,454.8297,-1.9422,-0.001389,-0.827163,6.4356,False,481.1400,0.0000
1773224730.338904,443.0563,-16.6105,-1.9245,462.9098,-0.0019,0.0050,6.2122,0.0308,454.8297,-1.9422,-0.002801,-0.747955,6.2123,False,481.6200,0.0000
1773224730.436465,443.1646,-17.3109,-1.9245,463.5354,0.0450,-0.0071,6.1223,-0.0432,454.8297,-1.9422,-0.008042,-0.853078,6.1224,False,482.4000,0.0000
1773224730.536675,443.2719,-18.0163,-1.9250,464.2286,-0.0870,0.0017,6.2436,0.0105,454.8297,-1.9422,-0.009726,-0.951183,6.2436,False,482.9400,0.0000
1773224730.636009,443.3870,-18.7128,-1.9254,464.7728,0.0028,-0.0099,6.0369,-0.0600,454.8297,-1.9422,0.008391,-0.898451,6.0372,False,483.6000,0.0000
1773224730.736733,443.4983,-19.3554,-1.9254,465.2961,0.0345,-0.0024,5.7498,-0.0137,454.8297,-1.9422,-0.006023,-0.988276,5.7498,False,484.2000,0.0000
1773224730.836250,443.6145,-20.0215,-1.9258,465.9073,-0.0374,-0.0044,6.0079,-0.0266,454.8297,-1.9422,-0.008803,-1.025515,6.0080,False,484.8000,0.0000
1773224730.935936,443.7510,-20.6753,-1.9258,466.4087,-0.0471,-0.0046,5.6191,-0.0259,454.8297,-1.9422,0.007000,-1.053278,5.6192,False,485.4000,0.0000
1773224731.036484,443.8784,-21.3196,-1.9258,466.9922,-0.0958,-0.0064,5.5546,-0.0357,454.8297,-1.9422,-0.008293,-1.035570,5.5547,False,486.0000,0.0000
1773224731.141050,444.0065,-21.9540,-1.9264,467.6611,-0.1140,0.0003,5.5903,0.0018,454.8297,-1.9422,-0.007519,-1.135016,5.5903,False,486.6000,0.0000
1773224731.235921,444.1474,-22.5739,-1.9266,468.2146,-0.0658,0.0001,5.2718,0.0005,454.8297,-1.9422,-0.003893,-1.022672,5.2718,False,487.1400,0.0000
1773224731.337229,444.2568,-23.0713,-1.9266,468.5747,-0.0850,-0.0000,5.1837,-0.0001,454.8297,-1.9422,-0.009126,-1.142144,5.1837,False,487.5600,0.0000
1773224731.463138,444.2568,-23.0713,-1.9266,468.5747,-0.0850,-0.0000,5.1837,-0.0001,454.8297,-1.9422,-0.004801,-1.121143,5.1837,False,487.5600,0.0000
1773224731.542969,444.5476,-24.2885,-1.9271,469.3836,-0.0908,0.0042,5.2271,0.0218,454.8297,-1.9422,0.000085,-1.213506,5.2272,False,488.4000,0.0000
1773224731.636863,444.7134,-24.9803,-1.9278,469.8247,-0.1810,0.0074,5.0335,0.0371,454.8297,-1.9422,-0.005439,-1.284026,5.0337,False,489.2400,0.0000
1773224731.736105,444.8824,-25.5565,-1.9282,470.4450,-0.0971,-0.0045,4.9209,-0.0222,454.8297,-1.9422,-0.003479,-1.297277,4.9210,False,489.8400,0.0000
1773224731.841449,445.0423,-26.1252,-1.9287,470.8457,-0.0207,0.0057,4.7593,0.0269,454.8297,-1.9422,-0.001730,-1.318695,4.7594,False,490.4400,0.0000
1773224731.936216,445.1987,-26.6966,-1.9289,471.3684,-0.0491,0.0006,4.9493,0.0028,471.7707,1.4023,-0.009273,-1.335291,4.9493,True,491.0400,0.0000
1773224732.036213,445.3869,-27.2385,-1.9291,471.7934,-0.0034,0.0070,4.3312,0.0302,471.7707,1.4023,-0.007709,-1.350115,4.3313,True,491.6400,0.0000
1773224732.138873,459.5806,-14.9663,-1.6216,472.1880,0.0038,0.0003,4.2883,0.0015,475.8508,-1.4448,-0.001354,-1.373074,4.2883,True,492.1200,0.0000
1773224732.240614,459.5861,-15.3272,-1.5746,472.5966,-0.0186,-0.0041,4.0961,-0.0167,475.8508,-1.4448,-0.000647,-1.536587,4.0961,True,492.7200,0.0000
1773224732.336227,461.0936,-8.9243,-1.6577,472.9209,-0.0395,-0.0057,3.7445,-0.0212,473.7538,1.1535,0.003595,-1.480919,3.7446,True,493.3200,0.0000
1773224732.436520,461.3012,-9.3361,-1.6496,473.3392,-0.0423,-0.0041,3.8647,-0.0157,473.7538,1.1535,-0.006799,-1.594199,3.8647,True,493.8600,0.0000
1773224732.537874,462.1806,-6.2795,-1.6855,473.6464,-0.0959,-0.0018,3.7328,-0.0066,473.6397,0.1104,-0.006495,-1.495824,3.7328,True,494.4600,0.0000
1773224732.638128,462.4203,-6.6757,-1.6809,473.9901,-0.0079,0.0030,3.3231,0.0100,473.6397,0.1104,-0.010465,-1.664584,3.3231,True,494.8800,0.0000
1773224732.736944,463.6666,-4.2310,-1.7395,474.2577,-0.0279,-0.0048,3.2378,-0.0155,475.7477,2.0552,0.005810,-1.737182,3.2379,True,495.6000,0.0000
1773224732.835963,463.9509,-4.6052,-1.7409,474.6065,-0.0734,-0.0058,3.2504,-0.0188,475.7477,2.0552,-0.008636,-1.674542,3.2505,True,496.2000,0.0000
1773224732.938152,463.9231,-3.6301,-1.7066,475.0119,-0.0457,0.0035,3.1018,0.0110,473.2181,-1.2781,-0.003565,-1.629351,3.1018,True,496.8000,0.0000
1773224733.035902,464.1780,-3.9670,-1.7068,475.3716,-0.2224,0.0148,2.8999,0.0430,473.2181,-1.2781,-0.002459,-1.593956,2.9003,True,497.3400,0.0000
1773224733.136372,464.0169,-2.3262,-1.6330,475.5915,-0.0466,-0.0054,2.7451,-0.0148,473.4669,2.3331,-0.004001,-1.657385,2.7452,True,498.0000,0.0000
1773224733.235918,463.9900,-2.5682,-1.5442,475.8051,-0.0210,0.0017,2.6655,0.0046,473.4669,2.3331,-0.014952,-1.681216,2.6655,True,498.5400,0.0000
