timestamp,ekf_x,ekf_y,ekf_yaw,gt_x,gt_y,gt_yaw,gt_vx,gt_vy,gnss_x,gnss_y,imu_yaw_rate,imu_accel_x,odom_velocity,gnss_available,lead_x,lead_y
1773666196.576740,0.0089,0.0000,0.0002,10.0042,-0.0092,-0.0011,-0.1109,0.0001,0.0000,0.0000,0.005964,0.137116,0.1109,True,62.0400,0.0000
1773666196.679814,0.7179,-0.1242,0.0009,10.0436,-0.0939,0.0044,-0.0966,-0.0004,9.6318,-0.5403,0.005639,0.217686,0.0966,True,62.6400,0.0000
1773666196.776625,0.7304,-0.1278,0.0012,9.9859,-0.0691,-0.0009,-0.1052,0.0001,9.6318,-0.5403,0.002724,0.335942,0.1052,True,63.2400,0.0000
1773666196.876752,0.6406,-0.0380,0.0015,10.0155,0.0432,-0.0066,-0.0744,0.0005,7.0210,0.1069,0.004444,0.455204,0.0744,True,63.8400,0.0000
1773666196.976676,0.6475,-0.0357,0.0019,10.0369,-0.0858,0.0039,0.0587,0.0002,7.0210,0.1069,0.006460,0.681803,0.0587,True,64.4400,0.0000
1773666197.077172,1.9723,0.2989,0.0027,10.1199,-0.0500,0.0024,0.1649,0.0004,11.2283,0.6651,0.000888,0.728468,0.1649,True,65.0400,0.0000
1773666197.188814,1.9887,0.3243,0.0026,10.0450,-0.0939,-0.0000,0.2171,-0.0000,11.2283,0.6651,0.000794,0.977867,0.2171,True,65.6400,0.0000
1773666197.284374,2.5211,-0.4839,-0.0018,10.0535,0.1507,-0.0063,0.2661,-0.0017,10.0361,-1.3115,0.003921,1.064154,0.2661,True,65.9400,0.0000
1773666197.376471,2.5596,-0.5416,-0.0018,10.0951,0.0095,0.0081,0.6114,0.0049,10.0361,-1.3115,0.003972,1.377328,0.6114,True,66.7800,0.0000
1773666197.476641,2.4938,0.0824,0.0043,10.1473,-0.0197,-0.0031,0.3362,-0.0010,8.8706,0.6809,0.010620,1.394658,0.3362,True,67.3200,0.0000
1773666197.576488,2.5497,0.0987,0.0046,10.2184,-0.0326,-0.0093,0.7052,-0.0065,8.8706,0.6809,-0.006415,1.660260,0.7052,True,67.9200,0.0000
1773666197.676700,3.0330,-1.1822,-0.0168,10.3721,-0.0038,-0.0025,0.8089,-0.0020,10.3113,-2.2011,-0.001889,1.742451,0.8089,True,68.5200,0.0000
1773666197.778761,3.1365,-1.3153,-0.0168,10.4374,0.0459,-0.0011,1.0561,-0.0011,10.3113,-2.2011,-0.002317,1.849035,1.0561,True,69.1200,0.0000
1773666197.876740,4.3941,-0.5236,0.0085,10.5841,-0.0410,-0.0019,1.3487,-0.0026,12.9029,0.1584,-0.001221,1.996814,1.3487,True,69.6600,0.0000
1773666197.976688,4.5355,-0.5466,0.0090,10.6352,0.1298,-0.0055,1.5193,-0.0084,12.9029,0.1584,0.000816,2.122845,1.5193,True,70.2600,0.0000
1773666198.076629,4.9702,-0.0432,0.0284,10.8953,0.0214,-0.0055,1.7310,-0.0095,11.8724,0.3030,0.007184,2.366963,1.7310,True,70.8600,0.0000
1773666198.176445,5.1227,-0.0116,0.0285,11.0014,-0.0225,0.0023,1.9551,0.0045,11.8724,0.3030,0.001890,2.430837,1.9551,True,71.4600,0.0000
1773666198.276783,4.3682,0.1832,0.0384,11.2632,0.0154,-0.0088,2.2794,-0.0201,9.0281,0.2130,0.004811,2.490539,2.2795,True,72.0600,0.0000
1773666198.376511,4.6081,0.2447,0.0387,11.5002,0.0227,-0.0009,2.3571,-0.0020,9.0281,0.2130,0.010612,2.503329,2.3571,True,72.6600,0.0000
1773666198.476509,5.2660,0.3610,0.0411,11.7082,0.0194,0.0003,2.6933,0.0008,12.4390,0.3335,0.004579,2.383736,2.6933,True,73.2600,0.0000
1773666198.576616,5.5582,0.4287,0.0414,11.8618,-0.0098,0.0066,3.1201,0.0207,12.4390,0.3335,0.005260,2.550446,3.1202,True,73.8600,0.0000
1773666198.676513,5.8364,1.1135,0.0793,12.3747,0.0406,0.0062,3.0485,0.0189,12.1785,1.5175,0.001267,2.609508,3.0485,True,74.4600,0.0000
1773666198.782339,6.1522,1.2431,0.0795,12.6160,-0.0931,-0.0054,3.4938,-0.0190,12.1785,1.5175,-0.002548,2.474483,3.4938,True,75.0600,0.0000
1773666198.876572,5.7773,-0.9069,-0.1067,12.9573,0.0092,0.0060,3.6755,0.0220,10.7896,-2.7370,0.008388,2.468878,3.6755,True,75.6600,0.0000
1773666198.976684,6.1456,-1.0212,-0.1064,13.4011,0.0192,-0.0026,3.9192,-0.0103,10.7896,-2.7370,-0.000437,2.581469,3.9193,True,76.2600,0.0000
1773666199.076610,7.9769,-1.3088,-0.1112,13.7417,-0.0409,0.0018,4.1566,0.0073,16.9059,-1.4388,0.003600,2.574304,4.1566,True,76.8600,0.0000
1773666199.177047,8.4823,-1.4666,-0.1111,14.2567,-0.0137,-0.0065,4.2722,-0.0279,16.9059,-1.4388,0.005384,2.555790,4.2723,True,77.4600,0.0000
1773666199.276410,8.4381,0.5057,0.1263,14.6286,0.0286,-0.0053,4.7107,-0.0252,13.9338,2.1176,0.001667,2.483659,4.7108,True,78.0600,0.0000
1773666199.376637,8.9171,0.6213,0.1262,15.1516,-0.0066,-0.0015,4.8955,-0.0072,13.9338,2.1176,0.002448,2.521112,4.8955,True,78.6600,0.0000
1773666199.476205,9.8881,-0.2752,0.0178,15.7499,0.0121,-0.0021,5.2306,-0.0108,16.9017,-1.3014,-0.001581,2.477660,5.2306,True,79.2600,0.0000
1773666199.642223,9.9912,-0.2734,0.0178,15.7499,0.0121,-0.0021,5.2306,-0.0108,16.9017,-1.3014,-0.001581,2.477660,5.2306,True,79.2600,0.0000
1773666199.677276,10.4449,1.1305,0.1714,16.6059,-0.0946,-0.0051,5.8173,-0.0299,15.7344,2.2666,0.007896,2.474581,5.8174,True,80.4600,0.0000
1773666199.777298,11.0188,1.2969,0.1719,17.2365,-0.1118,-0.0057,5.9004,-0.0335,15.7344,2.2666,0.008048,2.381215,5.9005,True,81.0600,0.0000
1773666199.876609,12.2067,-1.2004,-0.1090,17.8855,-0.0289,0.0032,6.1821,0.0198,19.1908,-3.7480,-0.001263,2.251801,6.1821,True,81.6600,0.0000
1773666199.978186,12.8434,-1.3002,-0.1092,18.5628,-0.0207,-0.0057,6.3743,-0.0366,19.1908,-3.7480,-0.007986,1.978574,6.3745,True,82.2000,0.0000
1773666200.078231,12.1445,-1.1171,-0.0916,19.1808,-0.0380,-0.0080,6.5004,-0.0517,15.9992,-0.7756,0.011890,1.901724,6.5006,True,82.7400,0.0000
1773666200.176693,12.7593,-1.1944,-0.0913,19.6424,0.0095,0.0027,6.6678,0.0177,15.9992,-0.7756,0.006143,1.756268,6.6678,True,83.3400,0.0000
1773666200.276736,14.0850,-0.1870,0.0422,20.3483,0.0130,-0.0078,6.7661,-0.0531,21.3796,0.8035,0.002288,1.542672,6.7663,True,83.8800,0.0000
1773666200.380544,14.7638,-0.1515,0.0424,21.0219,0.0056,0.0028,6.8690,0.0190,21.3796,0.8035,-0.005069,1.495182,6.8690,True,84.4200,0.0000
1773666200.477003,15.3497,-0.6241,-0.0209,21.6663,-0.0558,-0.0023,7.0813,-0.0161,21.3412,-1.1111,0.010685,1.365637,7.0813,True,85.0200,0.0000
1773666200.578279,16.0763,-0.6469,-0.0203,22.3502,0.0011,0.0058,7.2745,0.0421,21.3412,-1.1111,-0.007045,1.267558,7.2746,True,85.5600,0.0000
1773666200.676534,16.6541,-2.9307,-0.2528,23.0696,0.0023,-0.0026,7.4822,-0.0196,22.4673,-5.0559,-0.001204,1.028538,7.4823,True,86.1600,0.0000
1773666200.778037,17.3630,-3.1734,-0.2527,23.8244,-0.0534,-0.0049,7.3912,-0.0365,22.4673,-5.0559,0.007480,0.939866,7.3913,True,86.7600,0.0000
1773666200.876991,18.0629,-1.6112,-0.1143,24.4525,0.0007,-0.0133,7.5005,-0.0996,24.0782,0.4207,-0.001471,0.856909,7.5011,True,87.3000,0.0000
1773666200.976708,18.8101,-1.7127,-0.1141,25.2600,-0.0091,0.0067,7.5730,0.0507,24.0782,0.4207,0.005845,0.713919,7.5732,True,87.9000,0.0000
1773666201.079471,20.0788,-0.3604,0.0076,25.9593,-0.0022,0.0053,7.7051,0.0408,26.8689,1.1154,-0.000148,0.516182,7.7052,True,88.4400,0.0000
1773666201.180545,20.8622,-0.3205,0.0075,26.7720,0.0412,0.0004,7.7971,0.0029,26.8689,1.1154,-0.005875,0.332147,7.7971,True,89.1000,0.0000
1773666201.276220,21.9059,-0.8140,-0.0304,27.6303,-0.1011,-0.0013,7.6607,-0.0098,28.4917,-1.3802,-0.001578,0.376819,7.6607,True,89.6400,0.0000
1773666201.376694,22.6642,-0.8248,-0.0305,28.2677,0.0394,-0.0008,7.9726,-0.0065,28.4917,-1.3802,0.010869,0.420437,7.9726,True,90.3000,0.0000
1773666201.476770,23.1557,-1.2002,-0.0525,29.1095,-0.0627,-0.0022,8.0226,-0.0174,28.6114,-1.5833,0.007963,0.355841,8.0226,True,90.9000,0.0000
1773666201.576879,23.9453,-1.2442,-0.0525,29.8383,-0.0480,-0.0010,7.7990,-0.0078,28.6114,-1.5833,0.011835,0.391957,7.7990,True,91.5000,0.0000
1773666201.677779,24.7514,0.1286,0.0339,30.7053,-0.0586,0.0059,7.8976,0.0470,30.8718,1.2024,-0.009616,0.387900,7.8977,True,92.1000,0.0000
1773666201.776738,25.5356,0.2441,0.0340,31.4621,0.0313,0.0041,7.8789,0.0323,30.8718,1.2024,-0.001554,0.255822,7.8789,True,92.7000,0.0000
1773666201.904226,25.5356,0.2441,0.0340,31.4621,0.0313,0.0041,7.8789,0.0323,30.8718,1.2024,-0.001554,0.255822,7.8789,True,92.7000,0.0000
1773666201.986821,27.3099,-3.0065,-0.1234,32.9963,-0.0397,-0.0066,7.8277,-0.0516,33.0534,-5.5741,-0.006380,0.310013,7.8279,True,93.6600,0.0000
1773666202.080952,26.7588,-1.2131,-0.0383,33.6991,0.0467,-0.0014,8.1070,-0.0110,31.3576,0.6645,-0.001376,0.320701,8.1070,True,94.3200,0.0000
1773666202.184933,27.8834,-1.2236,-0.0376,34.4886,-0.0284,-0.0002,8.1487,-0.0019,31.3576,0.6645,0.003924,0.298870,8.1487,True,94.9800,0.0000
1773666202.287264,28.5353,-1.2627,-0.0388,35.2430,-0.0450,-0.0029,8.0096,-0.0228,34.0671,-1.3062,-0.001942,0.160998,8.0096,True,95.5800,0.0000
1773666202.385756,29.3806,-1.2763,-0.0388,36.0074,-0.0033,0.0003,8.0124,0.0027,34.0671,-1.3062,-0.002199,0.233390,8.0124,True,96.0000,0.0000
1773666202.479124,30.5662,-0.2009,0.0039,36.5709,-0.0311,-0.0080,8.0080,-0.0641,37.2304,0.5614,-0.000677,0.068671,8.0082,True,96.5400,0.0000
1773666202.577132,31.4674,-0.0721,0.0041,37.4603,0.0390,-0.0051,8.0550,-0.0411,37.2304,0.5614,0.009538,0.248484,8.0551,True,97.2000,0.0000
1773666202.677045,31.7655,2.7025,0.0880,38.2093,-0.0600,0.0144,8.1295,0.1172,36.6814,4.6041,-0.001812,0.136924,8.1304,True,97.7400,0.0000
1773666202.777081,32.5363,3.0861,0.0882,39.0168,-0.0557,0.0049,8.1028,0.0396,36.6814,4.6041,0.011798,0.232866,8.1029,True,98.3400,0.0000
1773666202.876267,34.0091,0.4093,-0.0026,39.8047,-0.0306,-0.0021,8.0506,-0.0172,41.3071,-2.1714,-0.001500,0.103921,8.0506,True,98.8800,0.0000
1773666202.980543,34.9537,0.4701,-0.0023,40.5968,-0.0917,0.0001,8.0634,0.0011,41.3071,-2.1714,-0.001312,0.203445,8.0634,True,99.4800,0.0000
1773666203.076689,35.7867,-1.1684,-0.0442,41.4049,-0.0527,-0.0012,8.1167,-0.0097,42.0663,-2.5497,0.000852,0.152724,8.1167,True,100.0800,0.0000
1773666203.179811,36.6109,-1.3021,-0.0440,42.2338,0.0367,-0.0078,8.1784,-0.0638,42.0663,-2.5497,0.000685,0.098513,8.1786,True,100.6200,0.0000
1773666203.276312,38.1643,-2.8868,-0.0760,43.0966,0.0238,0.0026,8.1242,0.0208,45.6500,-3.9347,0.009688,-0.014215,8.1242,True,101.2800,0.0000
1773666203.376670,38.9514,-3.1770,-0.0758,43.8508,-0.0030,0.0022,7.9973,0.0177,45.6500,-3.9347,0.010682,0.163185,7.9974,True,101.8800,0.0000
1773666203.485944,40.1201,0.4131,-0.0028,44.6797,0.0486,-0.0049,8.1248,-0.0401,46.5970,3.4584,-0.002403,0.048022,8.1249,True,102.4800,0.0000
1773666203.576885,41.0417,0.5853,-0.0028,45.4750,-0.0357,0.0029,8.1912,0.0235,46.5970,3.4584,0.002644,0.163143,8.1913,True,103.0800,0.0000
1773666203.676620,41.9207,0.6813,-0.0034,46.1236,0.0278,0.0022,8.2061,0.0177,47.8516,0.4489,0.003368,0.080175,8.2062,True,103.6800,0.0000
1773666203.780302,42.5891,0.7987,-0.0033,47.1468,-0.0047,-0.0011,8.3305,-0.0089,47.8516,0.4489,-0.009393,-0.069147,8.3305,True,104.2800,0.0000
1773666203.876261,43.2401,-0.5116,-0.0250,47.9383,0.0378,0.0031,8.2705,0.0254,48.4343,-1.7259,0.008086,-0.164944,8.2706,True,104.8800,0.0000
1773666203.976637,44.0465,-0.5298,-0.0247,48.6992,0.0234,-0.0042,8.0425,-0.0337,48.4343,-1.7259,0.003084,0.052090,8.0426,True,105.4800,0.0000
1773666204.076398,44.1415,1.3951,-0.0034,49.5858,0.0435,0.0026,8.1367,0.0211,48.6243,2.6953,0.004947,0.034010,8.1367,True,106.0800,0.0000
1773666204.176431,44.9518,1.5932,-0.0031,50.4278,0.0404,-0.0000,8.0514,-0.0003,48.6243,2.6953,0.002017,-0.039888,8.0514,True,106.6800,0.0000
1773666204.276767,44.2797,0.3180,-0.0123,51.1373,0.0023,0.0082,8.2612,0.0674,47.8611,-0.8547,0.001314,-0.050344,8.2615,True,107.2800,0.0000
1773666204.377181,45.2636,0.3552,-0.0124,52.0407,0.0673,0.0062,8.1988,0.0507,47.8611,-0.8547,0.001564,0.008936,8.1989,True,107.8800,0.0000
1773666204.476951,45.1754,0.2224,-0.0130,52.8277,0.0315,0.0011,8.2700,0.0092,49.3388,0.0604,0.003593,0.020704,8.2700,True,108.4800,0.0000
1773666204.577123,45.9846,0.2343,-0.0127,53.5813,-0.0830,-0.0038,8.1891,-0.0308,49.3388,0.0604,-0.001511,0.027752,8.1891,True,109.0800,0.0000
1773666204.676851,48.1845,-0.2901,-0.0119,54.4454,-0.0478,0.0018,7.9965,0.0141,56.5106,-0.7070,0.003521,-0.040017,7.9965,True,109.6800,0.0000
1773666204.777104,48.9993,-0.3367,-0.0115,55.2666,-0.0153,-0.0050,8.2124,-0.0414,56.5106,-0.7070,-0.001615,0.188399,8.2125,True,110.2800,0.0000
1773666204.876561,49.0652,1.3282,-0.0180,56.0686,-0.0056,-0.0019,8.1421,-0.0156,53.5042,2.4663,-0.002235,0.025563,8.1421,True,110.8800,0.0000
1773666204.976650,49.8679,1.4732,-0.0178,56.9091,0.0016,-0.0053,7.9820,-0.0422,53.5042,2.4663,-0.006301,0.114528,7.9821,True,111.4800,0.0000
1773666205.076595,50.2990,0.7170,-0.0147,57.6631,-0.0605,-0.0039,8.1348,-0.0314,55.8587,-0.0397,-0.001398,0.122757,8.1349,True,112.0800,0.0000
1773666205.176477,51.2718,0.7710,-0.0142,58.5521,-0.0268,0.0130,8.0294,0.1041,55.8587,-0.0397,-0.004475,0.053628,8.0301,True,112.6800,0.0000
1773666205.276726,52.3834,0.3267,-0.0134,59.4300,0.0099,-0.0043,8.1818,-0.0352,59.1643,-0.0847,-0.005838,-0.043919,8.1819,True,113.2800,0.0000
1773666205.376544,53.3637,0.3156,-0.0136,60.1963,-0.0051,-0.0065,8.1478,-0.0531,59.1643,-0.0847,-0.003555,-0.294053,8.1480,True,113.8800,0.0000
1773666205.476429,54.0289,0.3443,-0.0133,60.9257,0.1172,-0.0022,8.1454,-0.0176,59.5282,0.3465,0.006917,-0.166695,8.1454,True,114.4800,0.0000
1773666205.576400,54.6870,0.3402,-0.0131,61.7174,0.0349,0.0083,8.2801,0.0687,59.5282,0.3465,0.007562,-0.039709,8.2804,True,115.0800,0.0000
1773666205.676353,54.7030,-0.7878,-0.0054,62.6395,0.0382,-0.0054,7.9712,-0.0432,59.2600,-1.5774,0.011141,-0.045182,7.9714,True,115.6800,0.0000
1773666205.777051,55.6748,-0.9511,-0.0052,63.4239,-0.0165,0.0005,8.1667,0.0044,59.2600,-1.5774,-0.004154,0.188374,8.1667,True,116.2800,0.0000
1773666205.877003,57.1873,-2.7383,0.0113,64.2496,-0.0424,0.0005,8.1922,0.0038,64.2219,-3.7401,-0.001309,-0.027900,8.1922,True,116.8800,0.0000
1773666205.976620,58.0025,-3.0576,0.0115,64.9766,-0.0423,0.0011,8.1426,0.0093,64.2219,-3.7401,-0.000241,-0.025547,8.1426,True,117.4800,0.0000
1773666206.076537,59.7985,-2.5089,0.0030,65.7160,-0.0751,-0.0057,8.1286,-0.0465,67.8315,-1.7419,0.003410,0.055889,8.1287,True,118.0800,0.0000
1773666206.176289,60.6252,-2.7341,0.0036,66.7251,-0.0467,-0.0056,8.2520,-0.0463,67.8315,-1.7419,0.003347,0.025835,8.2521,True,118.6800,0.0000
1773666206.276495,62.4717,-0.6235,-0.0195,67.4864,-0.0063,-0.0011,8.1922,-0.0088,69.8359,1.0943,0.006977,-0.137049,8.1922,True,119.2800,0.0000
1773666206.376900,63.1100,-0.5871,-0.0192,68.2308,-0.0661,0.0028,8.0742,0.0230,69.8359,1.0943,0.009257,-0.017240,8.0742,True,119.8800,0.0000
1773666206.476907,64.2300,1.0189,-0.0345,69.1230,0.0200,0.0029,7.9060,0.0231,70.2847,1.9750,0.004882,-0.017617,7.9061,True,120.4800,0.0000
1773666206.576781,65.0402,1.2362,-0.0342,69.8186,-0.0013,-0.0076,8.0400,-0.0610,70.2847,1.9750,-0.001975,0.080162,8.0402,True,121.0800,0.0000
1773666206.677093,64.3766,1.8597,-0.0379,70.5683,0.0466,-0.0047,8.0773,-0.0376,67.5251,1.9109,0.003290,0.235864,8.0774,True,121.6800,0.0000
1773666206.776304,65.1821,2.1176,-0.0372,71.4616,-0.0512,0.0036,7.9683,0.0288,67.5251,1.9109,0.004705,0.251365,7.9683,True,122.2800,0.0000
1773666206.876859,65.0269,2.1165,-0.0344,72.2940,-0.0136,0.0049,8.0842,0.0397,69.0990,1.6849,-0.000733,0.204303,8.0843,True,122.8800,0.0000
1773666206.977136,65.8368,2.3418,-0.0340,73.0876,-0.0488,-0.0026,7.9531,-0.0203,69.0990,1.6849,0.001279,-0.098508,7.9531,True,123.4800,0.0000
1773666207.076983,67.1348,1.1055,-0.0335,73.8486,0.0349,0.0059,8.1747,0.0479,73.8371,-0.1304,0.009351,0.036340,8.1748,True,124.0800,0.0000
1773666207.177046,67.9507,1.1687,-0.0336,74.7117,0.0110,-0.0007,8.1436,-0.0057,73.8371,-0.1304,0.001204,-0.024151,8.1436,True,124.6800,0.0000
1773666207.277248,69.6549,2.4752,-0.0254,75.5835,0.0684,0.0071,8.1896,0.0582,76.9784,3.1535,0.012343,-0.213905,8.1898,True,125.2800,0.0000
1773666207.376961,70.4653,2.6820,-0.0255,76.3541,0.0041,0.0021,7.9956,0.0167,76.9784,3.1535,-0.003162,-0.069471,7.9956,True,125.8800,0.0000
1773666207.476385,70.2522,2.5043,-0.0270,77.2204,0.0588,-0.0076,8.0315,-0.0609,74.2685,2.0421,0.009389,0.051936,8.0318,True,126.4800,0.0000
1773666207.576640,71.0665,2.6648,-0.0271,77.9355,-0.0693,0.0020,8.1579,0.0163,74.2685,2.0421,-0.003471,0.023147,8.1580,True,127.0800,0.0000
1773666207.676758,70.4722,-0.7295,-0.0330,78.8149,0.0567,0.0165,8.0218,0.1326,73.8635,-3.1993,0.003573,0.091982,8.0229,True,127.6800,0.0000
1773666207.776410,71.2830,-0.9728,-0.0328,79.6375,-0.0131,0.0057,8.2333,0.0465,73.8635,-3.1993,-0.003011,0.112714,8.2334,True,128.2800,0.0000
1773666207.876571,72.6848,-0.2620,-0.0304,80.4282,0.0338,-0.0000,7.8647,-0.0001,79.5983,0.5539,-0.000517,0.050670,7.8647,True,128.8800,0.0000
1773666207.976374,73.3342,-0.3699,-0.0296,81.2269,0.0061,0.0014,8.1758,0.0111,79.5983,0.5539,0.004849,0.014535,8.1758,True,129.4800,0.0000
1773666208.076710,75.5798,-1.0389,-0.0304,82.0827,0.0204,0.0005,8.0120,0.0042,84.2310,-1.4039,0.003027,0.005738,8.0120,True,130.0800,0.0000
1773666208.176690,76.3888,-1.2314,-0.0299,82.8053,-0.0305,0.0049,8.1296,0.0397,84.2310,-1.4039,-0.002186,0.061298,8.1297,True,130.6800,0.0000
1773666208.276496,77.6099,-1.4282,-0.0298,83.6890,-0.0221,0.0022,8.2319,0.0184,83.8895,-1.2633,0.002477,-0.185661,8.2319,True,131.2800,0.0000
1773666208.376919,78.4150,-1.6160,-0.0298,84.4309,0.0614,-0.0081,8.0727,-0.0656,83.8895,-1.2633,0.005190,-0.148945,8.0730,True,131.8800,0.0000
1773666208.477093,79.5097,-2.9741,-0.0294,85.3470,0.0801,-0.0042,8.2867,-0.0352,85.8430,-3.6155,0.007112,-0.062469,8.2868,True,132.4800,0.0000
1773666208.577030,80.3068,-3.2926,-0.0290,86.0595,-0.0921,-0.0028,8.0896,-0.0229,85.8430,-3.6155,0.008833,-0.057486,8.0896,True,133.0800,0.0000
1773666208.676571,81.5126,-2.9642,-0.0331,86.9268,-0.0532,-0.0031,7.8797,-0.0242,88.1985,-2.3401,0.002363,0.079704,7.8797,True,133.6800,0.0000
1773666208.776342,82.3057,-3.2068,-0.0329,87.6545,0.1122,0.0074,7.8185,0.0582,88.1985,-2.3401,0.000442,0.054110,7.8187,True,134.2800,0.0000
1773666208.876587,82.5737,-3.0315,-0.0368,88.5698,0.0798,0.0005,8.2223,0.0044,87.8408,-2.5817,-0.002823,0.039083,8.2223,True,134.8800,0.0000
1773666208.976896,83.5390,-3.2757,-0.0363,89.3567,0.0359,0.0018,7.9408,0.0146,87.8408,-2.5817,0.002500,-0.106394,7.9408,True,135.4800,0.0000
1773666209.077225,84.1524,-2.8268,-0.0448,90.1816,-0.0140,0.0103,7.9819,0.0825,89.6165,-2.2088,0.004884,0.026609,7.9824,True,136.0800,0.0000
1773666209.176441,84.7942,-2.9321,-0.0449,90.9019,0.0251,0.0010,8.1336,0.0080,89.6165,-2.2088,-0.003686,0.087971,8.1336,True,136.6800,0.0000
1773666209.276464,84.8970,-1.3640,-0.0724,91.8019,0.0995,-0.0057,8.0150,-0.0455,89.5406,-0.0901,-0.001293,-0.013582,8.0152,True,137.2800,0.0000
1773666209.377605,85.8663,-1.2893,-0.0724,92.5434,-0.0150,-0.0013,7.9973,-0.0101,89.5406,-0.0901,0.001663,0.120652,7.9973,True,137.8800,0.0000
1773666209.477235,87.4872,-2.4617,-0.0567,93.4211,0.0609,-0.0008,8.0412,-0.0061,94.8233,-3.4326,-0.000533,0.123155,8.0412,True,138.4800,0.0000
1773666209.576478,88.1333,-2.5176,-0.0565,94.1728,0.0084,-0.0000,8.1095,-0.0002,94.8233,-3.4326,-0.004163,0.070890,8.1095,True,139.0800,0.0000
1773666209.676847,89.3951,-3.4260,-0.0534,94.9834,-0.0876,-0.0059,8.0377,-0.0478,95.8024,-3.9549,-0.002424,-0.034498,8.0378,True,139.6800,0.0000
1773666209.776907,90.1902,-3.5861,-0.0530,95.8313,0.0289,-0.0094,7.9767,-0.0753,95.8024,-3.9549,0.002561,0.058603,7.9771,True,140.2800,0.0000
1773666209.877062,91.1871,-2.1749,-0.0498,96.5669,0.0650,-0.0079,7.9579,-0.0629,97.2483,-1.0308,-0.007118,0.115768,7.9582,True,140.8800,0.0000
1773666209.977046,91.9966,-2.1574,-0.0494,97.3541,-0.0258,-0.0107,8.0289,-0.0858,97.2483,-1.0308,0.012698,0.068552,8.0294,True,141.4800,0.0000
1773666210.076788,92.8497,0.5864,-0.0331,98.2242,0.0392,-0.0009,8.2326,-0.0072,99.0281,2.4315,0.004201,0.132248,8.2326,True,142.0800,0.0000
1773666210.177053,93.8412,0.9806,-0.0331,99.0170,-0.0047,0.0005,8.2590,0.0041,99.0281,2.4315,-0.006323,-0.014999,8.2590,True,142.6800,0.0000
1773666210.276449,94.1914,1.2776,-0.0326,99.8787,0.0161,0.0057,8.1931,0.0471,99.6145,1.0159,-0.000166,0.188303,8.1932,True,143.2800,0.0000
1773666210.377106,95.1862,1.6760,-0.0322,100.6942,0.0644,-0.0037,8.1879,-0.0304,99.6145,1.0159,-0.001937,-0.048451,8.1879,True,143.8800,0.0000
1773666210.476353,94.5673,0.3307,-0.0545,101.3932,0.0081,-0.0074,8.0621,-0.0597,98.5020,-0.9552,0.001600,-0.054252,8.0623,True,144.4800,0.0000
1773666210.579433,95.4135,0.4731,-0.0547,102.1890,0.0152,-0.0035,8.3052,-0.0292,98.5020,-0.9552,0.006136,0.035107,8.3053,True,145.0200,0.0000
1773666210.677254,96.7636,1.0590,-0.0504,103.1264,-0.0532,0.0019,8.0133,0.0155,103.4585,1.1917,0.009145,0.100022,8.0133,True,145.6800,0.0000
1773666210.776336,97.4207,1.2098,-0.0501,103.8616,-0.0370,0.0007,8.0870,0.0057,103.4585,1.1917,0.008552,0.095838,8.0870,True,146.2800,0.0000
1773666210.877035,97.4275,1.5619,-0.0494,104.7840,-0.0158,0.0002,8.0724,0.0015,101.4211,1.4812,0.002595,0.003327,8.0724,True,146.8800,0.0000
1773666210.976340,98.0792,1.7197,-0.0490,105.4464,0.0895,-0.0008,7.8882,-0.0061,101.4211,1.4812,0.006069,-0.065419,7.8882,True,147.4800,0.0000
1773666211.076846,99.2596,0.7699,-0.0514,106.3574,0.0550,0.0017,8.0413,0.0137,105.4765,-0.2640,0.000241,0.001128,8.0413,True,148.0800,0.0000
1773666211.176563,99.9248,0.8201,-0.0510,107.1241,0.0021,-0.0086,8.2237,-0.0708,105.4765,-0.2640,0.000703,-0.035128,8.2241,True,148.6800,0.0000
1773666211.277376,101.6999,-0.0122,-0.0504,107.7867,0.0659,-0.0030,7.9550,-0.0240,109.4213,-0.7756,-0.008573,-0.269152,7.9551,True,149.1000,0.0000
1773666211.379274,102.5056,-0.0462,-0.0501,108.4671,-0.0606,-0.0035,8.0077,-0.0280,109.4213,-0.7756,-0.008120,-0.118467,8.0078,True,149.7000,0.0000
1773666211.481297,103.7226,1.6726,-0.0656,109.2025,0.0349,-0.0013,8.0633,-0.0109,110.4333,2.8175,0.003794,0.012763,8.0633,True,150.2400,0.0000
1773666211.585931,104.5282,1.8426,-0.0653,109.8611,0.0302,0.0013,7.9425,0.0102,110.4333,2.8175,0.002560,-0.057189,7.9425,True,150.7200,0.0000
1773666211.684919,105.7987,1.4926,-0.0573,110.7281,0.0311,-0.0043,7.9140,-0.0341,112.7158,0.9434,0.006649,-0.140528,7.9141,True,151.2600,0.0000
1773666211.780745,106.5744,1.6065,-0.0571,111.2880,-0.0664,0.0053,7.9545,0.0419,112.7158,0.9434,-0.009289,0.095867,7.9546,True,151.8000,0.0000
1773666211.876994,106.8507,0.4455,-0.0310,112.1934,-0.0270,-0.0059,8.0961,-0.0479,111.4588,-0.6211,0.003683,0.089194,8.0963,True,152.4000,0.0000
1773666211.977210,107.6577,0.4122,-0.0310,112.9430,-0.0549,0.0056,8.0586,0.0451,111.4588,-0.6211,0.001684,-0.027315,8.0588,True,153.0000,0.0000
1773666212.076325,106.7008,-1.5605,0.0082,113.8403,0.0110,0.0049,8.1254,0.0395,109.8165,-2.8892,0.004411,0.175904,8.1255,True,153.6000,0.0000
1773666212.177772,107.6857,-1.8784,0.0085,114.5494,-0.1014,0.0004,8.2084,0.0034,109.8165,-2.8892,0.002505,-0.076427,8.2084,True,154.2000,0.0000
1773666212.285290,108.3374,-0.0255,-0.0245,115.4069,0.0151,0.0012,8.1554,0.0096,114.2988,1.5509,-0.004621,-0.077087,8.1554,True,154.8000,0.0000
1773666212.376426,109.1477,-0.0459,-0.0243,116.1044,0.0264,0.0031,8.0789,0.0254,114.2988,1.5509,-0.001820,-0.180689,8.0790,True,155.4000,0.0000
1773666212.479876,111.3550,-1.0851,-0.0074,116.9316,-0.0256,0.0011,8.1452,0.0087,119.7702,-1.8407,0.009854,-0.041525,8.1453,True,155.9400,0.0000
1773666212.577162,112.2861,-1.2391,-0.0070,117.7179,0.0465,-0.0004,8.0943,-0.0032,119.7702,-1.8407,0.005383,0.022939,8.0943,True,156.5400,0.0000
1773666212.679035,113.4940,0.7166,-0.0511,118.5391,-0.0276,0.0093,8.0408,0.0749,120.4201,2.2785,-0.010827,-0.146572,8.0412,True,157.1400,0.0000
1773666212.785008,114.3239,0.8143,-0.0515,119.2745,0.0951,-0.0012,8.0922,-0.0094,120.4201,2.2785,-0.001175,-0.055377,8.0922,True,157.6800,0.0000
1773666212.876422,115.2632,-0.2917,-0.0184,119.9492,0.0759,-0.0021,8.1201,-0.0171,121.5300,-1.2495,0.004165,0.023922,8.1201,True,158.2800,0.0000
1773666212.981461,116.1872,-0.3385,-0.0181,120.8071,-0.0113,-0.0008,8.1253,-0.0062,121.5300,-1.2495,0.008514,0.017710,8.1253,True,158.8200,0.0000
1773666213.082567,116.2794,-0.1883,-0.0234,121.4938,-0.0565,-0.0044,7.9806,-0.0352,121.3602,-0.0602,0.003988,-0.002054,7.9806,True,159.3600,0.0000
1773666213.177093,117.0635,-0.2080,-0.0233,122.1492,0.0331,0.0039,8.1696,0.0316,121.3602,-0.0602,0.003593,0.047735,8.1697,True,159.7800,0.0000
1773666213.276323,118.6745,-1.0760,0.0002,122.8897,0.0153,0.0017,8.0506,0.0137,126.2841,-1.7248,-0.010433,0.083643,8.0506,True,160.4400,0.0000
1773666213.377410,119.6296,-1.2183,-0.0000,123.6829,-0.1205,0.0003,8.0201,0.0025,126.2841,-1.7248,-0.001230,0.065354,8.0201,True,161.0400,0.0000
1773666213.476501,119.2206,-0.2003,-0.0230,124.4519,-0.0740,-0.0050,8.1272,-0.0407,123.2427,0.7077,0.007667,0.087739,8.1273,True,161.6400,0.0000
1773666213.576351,120.0333,-0.1920,-0.0228,125.2884,0.0883,0.0009,8.0837,0.0069,123.2427,0.7077,0.003996,-0.075429,8.0837,True,162.2400,0.0000
1773666213.676473,120.7020,-0.5854,-0.0173,126.1390,0.0802,0.0013,8.0255,0.0105,126.4133,-0.9166,-0.000766,-0.072016,8.0255,True,162.8400,0.0000
1773666213.776349,121.3355,-0.6151,-0.0175,126.9551,0.0423,0.0039,7.9432,0.0310,126.4133,-0.9166,0.007838,0.010592,7.9433,True,163.2600,0.0000
1773666213.880754,121.8749,1.9028,-0.0411,127.4169,0.0200,-0.0009,7.9896,-0.0073,127.0828,3.6531,0.003705,0.139324,7.9896,True,163.7400,0.0000
1773666213.976472,122.6344,2.1431,-0.0407,128.1892,0.0545,-0.0013,8.0302,-0.0102,127.0828,3.6531,0.003570,0.101623,8.0302,True,164.4000,0.0000
1773666214.076631,122.1660,1.3891,-0.0328,129.0207,-0.0264,-0.0005,7.9988,-0.0037,125.8268,0.4470,-0.001801,0.188023,7.9988,True,165.0000,0.0000
1773666214.178363,122.9757,1.5255,-0.0327,129.7095,-0.0210,0.0069,8.0956,0.0561,125.8268,0.4470,-0.006831,0.203524,8.0958,True,165.5400,0.0000
1773666214.281227,123.5376,0.1085,-0.0312,130.5815,0.0648,-0.0029,8.2616,-0.0240,129.2197,-1.0744,-0.005969,0.068164,8.2616,True,166.1400,0.0000
1773666214.376626,124.3448,0.0616,-0.0312,131.2720,0.0092,-0.0032,7.9045,-0.0250,129.2197,-1.0744,0.010958,0.066829,7.9045,True,166.7400,0.0000
1773666214.476361,125.2898,-0.6895,-0.0353,132.1231,0.0312,0.0080,8.0339,0.0643,131.7396,-1.2087,-0.001802,0.136153,8.0342,True,167.2800,0.0000
1773666214.577200,126.0873,-0.8174,-0.0353,132.8231,0.0432,-0.0092,8.0765,-0.0743,131.7396,-1.2087,-0.007570,-0.011721,8.0769,True,167.7600,0.0000
1773666214.676713,127.1136,0.2134,-0.0242,133.5143,0.0925,-0.0031,8.0778,-0.0251,133.6332,1.0939,0.002101,0.066081,8.0778,True,168.4200,0.0000
1773666214.777006,128.0777,0.2230,-0.0241,134.3612,0.0106,0.0007,7.9711,0.0057,133.6332,1.0939,0.002034,-0.229423,7.9711,True,169.0200,0.0000
1773666214.876357,128.7515,0.0120,-0.0264,135.2693,0.1076,0.0036,7.9969,0.0291,134.7882,-0.1928,-0.004459,-0.010707,7.9969,True,169.6200,0.0000
1773666214.976480,129.5634,-0.0053,-0.0265,135.9458,-0.0391,0.0015,7.9823,0.0124,134.7882,-0.1928,0.000154,0.019204,7.9823,True,170.2200,0.0000
1773666215.077305,129.6567,1.1124,-0.0233,136.7885,0.0313,0.0016,7.8982,0.0128,133.8924,1.8824,0.006749,0.008369,7.8983,True,170.8200,0.0000
1773666215.176407,130.3131,1.1996,-0.0233,137.5775,0.0335,0.0042,8.1750,0.0343,133.8924,1.8824,0.000077,0.031767,8.1751,True,171.4200,0.0000
1773666215.276354,131.5938,-0.5587,-0.0214,138.3613,0.0921,0.0054,7.8005,0.0425,138.4975,-1.9905,-0.000078,-0.081373,7.8006,True,172.0200,0.0000
1773666215.378924,132.4093,-0.6643,-0.0213,139.1881,0.0641,-0.0064,8.1839,-0.0521,138.4975,-1.9905,-0.001939,-0.038946,8.1840,True,172.6200,0.0000
1773666215.476400,132.7802,-0.1828,-0.0233,140.0323,0.0894,-0.0065,7.9834,-0.0516,137.9583,0.2826,0.001585,-0.100474,7.9835,True,173.2200,0.0000
1773666215.576480,133.5876,-0.2217,-0.0229,140.8084,0.0581,-0.0040,7.9550,-0.0315,137.9583,0.2826,0.004772,-0.127453,7.9550,True,173.7600,0.0000
1773666215.689305,135.1766,1.6549,-0.0404,141.5967,0.0442,-0.0015,7.9604,-0.0118,142.0827,2.8979,0.003411,-0.024088,7.9604,True,174.4200,0.0000
1773666215.786055,135.8165,1.7978,-0.0405,142.4701,0.0631,0.0080,7.9959,0.0640,142.0827,2.8979,0.000885,0.131438,7.9962,True,175.0200,0.0000
1773666215.877459,137.2784,0.6222,-0.0186,143.2271,0.0608,-0.0108,8.0777,-0.0871,144.0028,-0.5269,0.001114,0.028167,8.0782,True,175.6200,0.0000
1773666215.977108,138.0767,0.6478,-0.0184,144.1215,0.0315,0.0015,8.0310,0.0124,144.0028,-0.5269,0.006510,-0.003653,8.0310,True,176.2200,0.0000
1773666216.077915,138.9451,0.5590,-0.0166,144.7901,-0.0712,-0.0026,8.0870,-0.0210,144.8670,0.4210,0.000484,-0.050153,8.0871,True,176.8200,0.0000
1773666216.176935,139.7459,0.5721,-0.0167,145.5833,0.0267,-0.0023,7.9683,-0.0187,144.8670,0.4210,0.000538,-0.065125,7.9683,True,177.4200,0.0000
1773666216.276315,141.3557,1.0450,-0.0235,146.4379,-0.0052,-0.0026,7.9710,-0.0207,149.0546,1.2997,-0.006470,0.089287,7.9710,True,178.0200,0.0000
1773666216.376824,142.3319,1.1262,-0.0237,147.2575,-0.0966,0.0065,8.0859,0.0522,149.0546,1.2997,-0.013748,0.093214,8.0861,True,178.6200,0.0000
1773666216.477196,141.7203,1.9251,-0.0336,148.0291,-0.0360,-0.0075,8.0851,-0.0606,144.9513,2.3414,0.002914,-0.063764,8.0853,True,179.2200,0.0000
1773666216.577440,142.5268,2.0710,-0.0335,148.9235,0.0410,0.0028,8.0643,0.0222,144.9513,2.3414,-0.001754,0.012396,8.0644,True,179.8200,0.0000
1773666216.676299,142.9694,0.2251,-0.0100,149.7140,0.0587,-0.0013,8.1155,-0.0108,148.6200,-1.2835,0.005742,-0.140313,8.1155,True,180.4200,0.0000
1773666216.776947,143.9276,0.1295,-0.0099,150.5926,0.0369,0.0021,8.0349,0.0169,148.6200,-1.2835,-0.004838,-0.031807,8.0350,True,181.0200,0.0000
1773666216.876373,144.3731,-0.3328,-0.0035,151.2777,0.0732,-0.0016,8.0325,-0.0127,150.0313,-0.5699,-0.001014,0.040868,8.0325,True,181.6200,0.0000
1773666216.977061,145.3374,-0.4848,-0.0034,152.1616,0.0149,-0.0004,8.0209,-0.0031,150.0313,-0.5699,0.008864,-0.102523,8.0209,True,182.2200,0.0000
1773666217.076885,145.6620,-1.0919,0.0049,152.9032,-0.0777,-0.0049,8.0713,-0.0395,150.6020,-1.3154,0.001333,-0.079478,8.0714,True,182.8200,0.0000
1773666217.176484,146.4574,-1.2721,0.0047,153.7479,-0.0639,0.0002,8.0163,0.0017,150.6020,-1.3154,-0.003544,-0.031693,8.0163,True,183.4200,0.0000
1773666217.276507,147.8020,-2.5802,0.0279,154.4609,-0.0275,-0.0027,7.8505,-0.0212,154.6027,-3.1775,0.000918,0.102656,7.8506,True,184.0200,0.0000
1773666217.376289,148.4593,-2.8256,0.0279,155.3645,0.0459,-0.0009,8.0907,-0.0072,154.6027,-3.1775,0.001004,0.148498,8.0907,True,184.6200,0.0000
1773666217.477797,149.7177,1.1239,-0.0519,156.1296,0.0080,-0.0049,8.1697,-0.0398,156.0557,4.2284,0.003720,0.051047,8.1698,True,185.2200,0.0000
1773666217.576663,150.3584,1.2660,-0.0519,156.8520,-0.0036,0.0041,7.9996,0.0327,156.0557,4.2284,-0.007321,0.005170,7.9997,True,185.8200,0.0000
1773666217.679532,150.5529,0.8531,-0.0470,157.7147,0.1026,-0.0092,8.1460,-0.0750,155.4448,0.2606,-0.005345,0.127036,8.1464,True,186.4200,0.0000
1773666217.776491,151.3551,0.9630,-0.0470,158.5357,0.0170,0.0068,7.9138,0.0541,155.4448,0.2606,0.007675,0.155966,7.9140,True,187.0200,0.0000
1773666217.877140,152.2584,0.9485,-0.0467,159.3672,0.0906,-0.0083,8.2484,-0.0685,158.3841,0.7325,0.003025,0.121131,8.2486,True,187.6200,0.0000
1773666217.977191,153.0772,1.0441,-0.0468,160.1524,0.0721,0.0032,8.0336,0.0255,158.3841,0.7325,-0.002399,-0.036454,8.0336,True,188.2200,0.0000
1773666218.078942,153.5150,0.2412,-0.0632,160.8814,-0.0033,-0.0025,8.0755,-0.0203,159.0366,-0.4574,-0.000793,0.007547,8.0755,True,188.7000,0.0000
1773666218.177311,154.3466,0.2300,-0.0635,161.6473,0.0338,-0.0012,8.1322,-0.0099,159.0366,-0.4574,0.006927,-0.135932,8.1322,True,189.3000,0.0000
1773666218.276287,156.6023,-1.2504,-0.0910,162.4426,0.0750,-0.0008,8.0555,-0.0064,165.3254,-2.4613,0.007590,0.005916,8.0555,True,189.9600,0.0000
1773666218.376873,157.5584,-1.4506,-0.0908,163.2490,-0.0416,-0.0009,8.0835,-0.0075,165.3254,-2.4613,-0.011106,-0.020023,8.0835,True,190.5600,0.0000
1773666218.476398,157.8853,-1.6777,-0.0918,164.1004,-0.0076,0.0070,8.0432,0.0563,162.8929,-1.5523,0.021628,-0.008110,8.0434,True,191.1600,0.0000
1773666218.576946,158.6770,-1.8548,-0.0916,164.9294,-0.0201,-0.0039,8.0322,-0.0312,162.8929,-1.5523,0.003400,0.058054,8.0322,True,191.7600,0.0000
1773666218.676378,158.9301,-2.5690,-0.0941,165.6778,0.0453,-0.0022,8.1212,-0.0182,163.8618,-2.7427,-0.000114,0.058208,8.1212,True,192.3600,0.0000
1773666218.776755,159.5517,-2.7628,-0.0937,166.4484,-0.0002,-0.0061,7.8802,-0.0485,163.8618,-2.7427,0.000772,0.124282,7.8804,True,192.9600,0.0000
1773666218.877066,161.1126,0.7863,-0.0879,167.1838,-0.0391,0.0091,8.1759,0.0743,168.6987,3.4884,0.000626,-0.016843,8.1762,True,193.3800,0.0000
1773666218.977339,162.2839,1.0839,-0.0880,167.9521,0.0231,-0.0003,8.1585,-0.0024,168.6987,3.4884,-0.005630,-0.046592,8.1585,True,194.0400,0.0000
1773666219.077534,162.1597,1.4319,-0.0877,168.6446,0.0277,-0.0058,7.8838,-0.0454,166.4469,1.4079,-0.001959,-0.142772,7.8839,True,194.5800,0.0000
1773666219.182682,162.8289,1.6065,-0.0878,169.5623,0.0322,-0.0099,8.0047,-0.0796,166.4469,1.4079,0.000618,-0.137845,8.0051,True,195.1200,0.0000
1773666219.276628,163.4961,2.0331,-0.0881,170.2746,-0.0398,0.0042,8.1504,0.0342,168.9923,1.9841,0.002495,0.005126,8.1504,True,195.7200,0.0000
1773666219.376985,164.4159,2.2986,-0.0883,170.9346,0.0763,0.0011,8.0720,0.0085,168.9923,1.9841,-0.005904,0.017244,8.0720,True,196.3200,0.0000
1773666219.476681,164.6343,1.0466,-0.0805,171.8276,-0.0217,-0.0074,8.0999,-0.0596,169.9027,-0.1878,-0.002280,-0.152659,8.1002,True,196.9200,0.0000
1773666219.576613,165.4427,1.1169,-0.0811,172.5591,0.0138,0.0005,8.0282,0.0036,169.9027,-0.1878,0.001907,-0.106478,8.0282,True,197.5200,0.0000
1773666219.676381,166.2982,1.2426,-0.0821,173.4585,0.0571,-0.0007,8.0064,-0.0057,172.4988,1.2015,-0.006839,-0.048453,8.0064,True,198.1200,0.0000
1773666219.776284,167.1056,1.3180,-0.0820,174.2267,-0.0157,0.0005,8.1057,0.0040,172.4988,1.2015,0.001181,-0.022226,8.1057,True,198.7200,0.0000
1773666219.876743,168.7443,3.2393,-0.1293,175.0621,-0.0906,-0.0012,8.0949,-0.0100,176.0072,4.4404,0.007380,-0.026861,8.0949,True,199.3200,0.0000
1773666219.976310,169.5920,3.5314,-0.1295,175.7887,-0.0026,0.0065,8.0262,0.0525,176.0072,4.4404,0.001173,-0.184028,8.0264,True,199.9200,0.0000
1773666220.077157,170.5133,3.2357,-0.1091,176.5393,-0.0432,0.0001,7.9602,0.0005,176.2445,2.4905,0.005239,0.145876,7.9602,True,200.5200,0.0000
1773666220.176516,171.1701,3.4114,-0.1092,177.3992,0.0937,-0.0009,7.9444,-0.0068,176.2445,2.4905,-0.001090,0.230418,7.9445,True,201.1200,0.0000
1773666220.278456,171.9338,0.6302,-0.0220,178.1128,0.0049,0.0003,8.2304,0.0027,178.0639,-1.8454,-0.007190,0.098201,8.2304,True,201.6000,0.0000
1773666220.378825,172.7766,0.5214,-0.0219,179.0149,0.0607,-0.0059,8.1302,-0.0480,178.0639,-1.8454,0.006875,0.075911,8.1303,True,202.2000,0.0000
1773666220.476624,173.7528,-0.3282,-0.0114,179.6657,-0.0222,-0.0019,7.9256,-0.0149,180.3102,-0.8665,-0.008669,-0.005862,7.9256,True,202.8000,0.0000
1773666220.584698,174.5488,-0.5149,-0.0114,180.4403,0.1490,-0.0035,7.9928,-0.0277,180.3102,-0.8665,0.003516,0.039650,7.9929,True,203.2800,0.0000
1773666220.687696,174.2134,-0.2217,-0.0112,181.2430,-0.0444,-0.0039,8.1718,-0.0316,178.3253,0.2582,0.008706,-0.020616,8.1718,True,203.8800,0.0000
1773666220.776498,175.0697,-0.3651,-0.0112,182.0322,0.0930,-0.0027,8.1485,-0.0219,178.3253,0.2582,-0.004079,-0.155965,8.1485,True,204.6000,0.0000
1773666220.880196,175.7468,1.1016,0.0013,182.7848,-0.0221,-0.0002,7.9393,-0.0013,181.7749,2.3243,0.004007,-0.081398,7.9393,True,205.2000,0.0000
1773666220.976523,176.5225,1.1535,0.0014,183.7645,0.0181,-0.0089,7.9385,-0.0708,181.7749,2.3243,0.000584,0.000040,7.9388,True,205.8000,0.0000
1773666221.077631,177.6510,2.1697,0.0046,184.4699,-0.0099,-0.0080,7.9428,-0.0635,184.2309,2.8364,-0.000155,0.043699,7.9430,True,206.4000,0.0000
1773666221.176479,178.4496,2.3331,0.0043,185.1089,0.0342,0.0025,7.9268,0.0201,184.2309,2.8364,0.008953,0.046220,7.9268,True,207.0000,0.0000
1773666221.276402,179.6983,-0.2148,0.0060,186.0169,0.0651,0.0015,8.0187,0.0117,186.4838,-2.3353,-0.000110,-0.050764,8.0187,True,207.6000,0.0000
1773666221.385871,180.5085,-0.3646,0.0060,186.9022,0.0687,0.0049,8.1135,0.0395,186.4838,-2.3353,0.005907,-0.113671,8.1136,True,208.1400,0.0000
1773666221.487594,180.8370,0.3833,0.0036,187.6200,0.0667,-0.0069,7.8819,-0.0542,186.2138,1.0408,-0.005232,-0.242353,7.8821,True,208.7400,0.0000
1773666221.583248,181.6949,0.3373,0.0041,188.4277,-0.0330,0.0023,7.9856,0.0187,186.2138,1.0408,-0.002041,-0.112419,7.9856,True,209.2800,0.0000
1773666221.689997,183.0493,-0.9009,0.0200,189.1392,-0.0587,-0.0063,8.1094,-0.0510,190.2305,-1.7934,0.006112,-0.129231,8.1096,True,209.5800,0.0000
1773666221.781866,183.8473,-1.0821,0.0201,189.9355,-0.0472,-0.0018,7.8564,-0.0142,190.2305,-1.7934,0.008898,-0.058063,7.8564,True,210.3600,0.0000
1773666221.876893,184.5914,0.4049,-0.0296,190.6240,0.0438,-0.0070,7.9751,-0.0554,190.2047,1.7442,0.001831,0.061299,7.9753,True,211.0200,0.0000
1773666221.976722,185.2256,0.4107,-0.0295,191.4689,0.0502,0.0016,7.9795,0.0126,190.2047,1.7442,0.002120,0.290078,7.9795,True,211.6200,0.0000
1773666222.086402,186.5748,1.4015,-0.0662,192.2537,0.0789,-0.0004,7.8821,-0.0033,193.5514,2.1056,0.006988,-0.053076,7.8821,True,212.1600,0.0000
1773666222.176684,187.3881,1.5218,-0.0660,192.7976,-0.0933,-0.0044,7.9684,-0.0353,193.5514,2.1056,0.003675,-0.132575,7.9685,True,212.7000,0.0000
1773666222.281254,187.7720,-0.6789,0.0009,193.4675,0.0810,0.0009,8.0521,0.0074,193.2400,-2.4098,-0.004228,-0.034701,8.0521,True,213.0000,0.0000
1773666222.379822,188.5414,-0.8245,0.0008,194.0407,0.0185,0.0046,7.9693,0.0367,193.2400,-2.4098,0.005285,0.020202,7.9694,True,213.5400,0.0000
1773666222.477308,188.3559,0.2125,-0.0320,194.6940,0.0063,-0.0027,8.0206,-0.0218,192.2447,1.2138,-0.006870,-0.113586,8.0207,True,214.0800,0.0000
1773666222.577000,189.1519,0.1958,-0.0321,195.5738,-0.0091,0.0033,8.0318,0.0262,192.2447,1.2138,-0.002447,-0.275627,8.0319,True,214.6800,0.0000
1773666222.677845,190.0816,-0.2113,-0.0196,196.2606,0.0029,-0.0033,8.0761,-0.0264,196.6197,-0.5450,0.002263,-0.144872,8.0762,True,215.2800,0.0000
1773666222.777020,191.0207,-0.2841,-0.0197,197.1045,0.1040,-0.0053,7.8810,-0.0420,196.6197,-0.5450,-0.002315,-0.118187,7.8811,True,215.8800,0.0000
1773666222.876850,192.5573,1.1469,-0.0769,197.9135,0.0415,0.0073,7.9496,0.0580,200.1155,2.3621,0.003851,-0.261439,7.9498,True,216.4800,0.0000
1773666222.976697,193.5125,1.2547,-0.0767,198.5773,0.0070,0.0012,7.7950,0.0096,200.1155,2.3621,0.000444,-0.302547,7.7950,True,217.0800,0.0000
1773666223.086842,192.2159,-0.3603,0.0154,199.2068,0.1054,0.0066,7.8413,0.0518,195.0690,-1.7111,-0.005023,-0.384986,7.8415,True,217.5000,0.0000
1773666223.177084,192.8678,-0.4368,0.0151,199.7256,-0.0759,0.0039,7.7606,0.0304,195.0690,-1.7111,0.004064,-0.547218,7.7607,True,217.9200,0.0000
1773666223.279768,193.3164,0.1319,-0.0525,200.3881,0.0779,-0.0024,7.9120,-0.0193,198.5130,0.6860,0.003704,-0.495883,7.9120,True,218.2800,0.0000
1773666223.380247,194.0490,0.1125,-0.0498,200.9758,0.0314,0.0057,7.7758,0.0441,198.5130,0.6860,-0.002367,-0.336759,7.7759,True,218.7600,0.0000
1773666223.480679,194.6662,-1.6455,-0.0964,201.6415,-0.0585,0.0061,7.5293,0.0456,200.1897,-3.9871,0.001050,-0.543873,7.5295,True,219.3000,0.0000
1773666223.576464,195.3672,-1.5296,-0.1903,202.3287,0.0234,0.0040,7.7478,0.0310,200.1897,-3.9871,0.009493,-0.387860,7.7479,True,219.8400,0.0000
1773666223.676395,196.8309,-1.1393,-0.2130,202.8931,0.0391,0.0047,7.5829,0.0359,203.8988,-0.6291,-0.001962,-0.182313,7.5830,True,220.2600,0.0000
1773666223.782928,197.5677,-1.1386,-0.2131,203.5583,0.0630,-0.0039,7.6560,-0.0296,203.8988,-0.6291,0.000289,-0.086872,7.6561,True,220.8600,0.0000
1773666223.879155,198.2715,0.3732,-0.0490,204.1519,0.0953,-0.0111,7.5714,-0.0842,204.3289,3.0838,0.003298,-0.230663,7.5719,True,221.3400,0.0000
1773666223.977114,199.0336,0.2998,-0.0515,204.9920,0.0565,0.0006,7.6387,0.0049,204.3289,3.0838,0.002799,-0.297886,7.6387,True,222.0000,0.0000
1773666224.076576,198.7861,-0.6471,0.0471,205.6113,0.0680,-0.0065,7.4905,-0.0484,203.0299,-1.7470,0.001299,-0.280744,7.4906,True,222.3600,0.0000
1773666224.176570,199.5480,-0.7754,0.0468,206.3085,0.0277,-0.0027,7.5198,-0.0201,203.0299,-1.7470,-0.009211,-0.368171,7.5198,True,222.9600,0.0000
1773666224.278673,201.0443,-0.4305,-0.0269,206.9999,0.0013,0.0044,7.5935,0.0336,208.5722,0.1393,0.000952,-0.466313,7.5936,True,223.5000,0.0000
1773666224.380854,201.7928,-0.5198,-0.0267,207.5598,-0.0048,0.0011,7.4690,0.0085,208.5722,0.1393,-0.001880,-0.595722,7.4690,True,224.0400,0.0000
1773666224.476463,202.2885,-0.1190,-0.0930,208.4164,-0.0010,0.0121,7.5521,0.0917,207.6139,0.5001,-0.000996,-0.540528,7.5527,True,224.6400,0.0000
1773666224.577145,202.9613,-0.1643,-0.0927,209.0394,0.0410,-0.0098,7.3859,-0.0727,207.6139,0.5001,0.005244,-0.544978,7.3862,True,225.2400,0.0000
1773666224.676707,203.3272,-1.7369,-0.1605,209.7668,-0.0240,-0.0080,7.3376,-0.0587,208.5080,-4.1419,0.003877,-0.418979,7.3379,True,225.7200,0.0000
1773666224.776741,204.0292,-1.6908,-0.2106,210.5637,-0.1046,0.0042,7.2528,0.0305,208.5080,-4.1419,-0.008970,-0.652574,7.2529,True,226.4400,0.0000
1773666224.877230,204.3063,-0.5124,-0.2640,211.2135,0.0058,0.0069,7.1736,0.0496,209.2117,1.1879,-0.003219,-0.663630,7.1737,True,227.0400,0.0000
1773666224.976627,204.8946,-0.5008,-0.2618,211.9674,0.0186,-0.0021,7.1964,-0.0148,209.2117,1.1879,0.002829,-0.487095,7.1964,True,227.6400,0.0000
1773666225.076939,205.5340,-0.2106,-0.2949,212.5616,0.0879,0.0048,7.1152,0.0344,210.9176,0.1289,0.002220,-0.507160,7.1153,True,228.2400,0.0000
1773666225.177062,206.2862,-0.1862,-0.2950,213.3952,-0.0974,0.0057,7.1840,0.0407,210.9176,0.1289,0.001213,-0.453564,7.1841,True,228.8400,0.0000
1773666225.276268,208.0738,-0.0910,-0.3737,214.1276,0.0644,-0.0012,6.8960,-0.0085,216.1488,-0.2292,-0.001347,-0.520085,6.8960,True,229.4400,0.0000
1773666225.376814,209.0031,-0.0334,-0.3750,214.6728,0.0048,-0.0054,7.1240,-0.0384,216.1488,-0.2292,-0.003368,-0.417540,7.1241,True,230.0400,0.0000
1773666225.476703,210.3846,0.1400,0.1858,215.4737,0.0251,0.0044,6.9752,0.0309,218.1615,1.7136,-0.004000,-0.507567,6.9753,True,230.6400,0.0000
1773666225.576652,211.1252,-0.0326,0.1659,216.2062,0.0430,0.0021,6.8423,0.0144,218.1615,1.7136,0.000849,-0.449426,6.8423,True,231.2400,0.0000
1773666225.677802,211.7328,-0.5604,0.1966,216.8471,0.0220,-0.0043,6.8785,-0.0296,217.5732,-0.9592,-0.002132,-0.324141,6.8786,True,231.7800,0.0000
1773666225.779924,212.4036,-0.7401,0.1965,217.5654,0.0165,-0.0022,6.8769,-0.0150,217.5732,-0.9592,-0.009881,-0.292041,6.8770,True,232.4400,0.0000
1773666225.876506,213.2786,0.2216,-0.0476,218.1113,0.0346,0.0005,6.8021,0.0034,219.8110,1.6718,0.008708,-0.514228,6.8021,True,232.9800,0.0000
1773666225.977193,214.0889,0.1006,-0.0364,218.8131,-0.0004,-0.0077,6.6517,-0.0511,219.8110,1.6718,0.006963,-0.612465,6.6519,True,233.5800,0.0000
1773666226.077130,214.0603,-0.5669,-0.0186,219.5385,0.0395,-0.0082,6.6198,-0.0543,218.8792,-1.4294,-0.005472,-0.634539,6.6200,True,234.1800,0.0000
1773666226.176350,214.5889,-0.6448,-0.0197,220.2219,0.0169,-0.0005,6.6759,-0.0037,218.8792,-1.4294,-0.006243,-0.371801,6.6759,True,234.7800,0.0000
1773666226.277263,215.1023,-0.8979,0.0109,220.8638,0.0375,-0.0067,6.4944,-0.0438,220.5689,-0.9630,0.006203,-0.237680,6.4946,True,235.3800,0.0000
1773666226.376693,215.6255,-0.9881,0.0109,221.4645,-0.0286,0.0020,6.5299,0.0130,220.5689,-0.9630,0.002708,-0.341196,6.5299,True,235.9800,0.0000
1773666226.477108,216.7474,-0.7420,-0.0761,222.1590,-0.1002,0.0010,6.5643,0.0063,223.3745,-0.3607,0.000975,-0.365971,6.5643,True,236.5800,0.0000
1773666226.577840,217.3840,-0.8219,-0.0716,222.7662,-0.0372,0.0060,6.3770,0.0382,223.3745,-0.3607,-0.007358,-0.449587,6.3771,True,237.1800,0.0000
1773666226.681218,216.9295,0.2022,-0.0605,223.5556,0.0608,0.0013,6.2606,0.0078,221.1862,2.0378,0.007312,-0.360595,6.2606,True,237.7200,0.0000
1773666226.785609,217.5293,0.1353,-0.0716,223.9227,0.0892,0.0033,6.4134,0.0209,221.1862,2.0378,0.004435,-0.377704,6.4134,True,238.2600,0.0000
1773666226.878982,218.0781,0.6260,-0.1450,224.6876,0.0257,-0.0008,6.4485,-0.0051,224.1383,1.3224,-0.010216,-0.442559,6.4485,True,238.8600,0.0000
1773666226.976779,218.7091,0.5778,-0.1447,225.2275,0.0448,-0.0076,6.1961,-0.0472,224.1383,1.3224,0.003914,-0.636534,6.1963,True,239.5200,0.0000
1773666227.083991,219.5583,0.8095,-0.1803,225.8242,0.0719,-0.0019,6.2350,-0.0120,226.0119,1.1502,-0.001177,-0.561833,6.2350,True,240.0600,0.0000
1773666227.184261,220.1619,0.7829,-0.1809,226.3748,0.0506,0.0004,6.1717,0.0027,226.0119,1.1502,-0.008339,-0.362121,6.1717,True,240.6000,0.0000
1773666227.276550,219.9404,0.7087,-0.1710,227.0434,0.0780,-0.0097,6.1681,-0.0601,224.6544,0.6832,-0.004686,-0.446549,6.1684,True,241.2000,0.0000
1773666227.376782,220.5372,0.6776,-0.1707,227.6179,0.0377,0.0085,6.0279,0.0513,224.6544,0.6832,0.008056,-0.470122,6.0281,True,241.8000,0.0000
1773666227.476948,221.1586,1.3789,0.0052,228.1992,0.0385,-0.0037,6.0600,-0.0224,227.0256,3.1759,-0.008431,-0.498037,6.0601,True,242.4000,0.0000
1773666227.577104,221.7513,1.2689,-0.0032,228.8658,0.0790,-0.0021,5.8116,-0.0125,227.0256,3.1759,0.013354,-0.386027,5.8117,True,243.0000,0.0000
1773666227.676633,221.9822,-0.6599,-0.0083,229.4006,-0.0317,0.0048,6.1053,0.0295,227.6515,-3.5909,0.005144,-0.387317,6.1054,True,243.6000,0.0000
1773666227.778905,222.5808,-0.7444,-0.0182,230.0541,-0.0825,0.0068,6.0698,0.0413,227.6515,-3.5909,-0.003300,-0.404054,6.0699,True,244.2000,0.0000
1773666227.877000,224.2262,0.6582,-0.1996,230.5881,-0.0022,-0.0045,5.8335,-0.0261,231.9459,2.5096,0.019714,-0.399125,5.8336,True,244.8000,0.0000
1773666227.976347,224.7040,0.6585,-0.1991,231.2932,-0.0197,0.0003,5.7136,0.0017,231.9459,2.5096,-0.005703,-0.423241,5.7136,True,245.4000,0.0000
1773666228.076726,224.1123,1.0647,-0.2092,231.8954,0.0362,-0.0019,5.9243,-0.0113,228.2265,1.6720,-0.000208,-0.395184,5.9244,True,246.0000,0.0000
1773666228.176552,224.7197,1.0688,-0.2089,232.2907,-0.0607,-0.0024,5.9095,-0.0142,228.2265,1.6720,-0.000491,-0.644455,5.9095,True,246.6000,0.0000
1773666228.280247,224.8772,1.3393,-0.2420,232.7986,0.0091,-0.0025,5.7930,-0.0145,230.1931,1.6223,0.008519,-0.637569,5.7930,True,247.0800,0.0000
1773666228.376368,225.4661,1.3613,-0.2396,233.4358,0.0300,0.0070,5.7037,0.0401,230.1931,1.6223,0.001545,-0.675029,5.7038,True,247.6800,0.0000
1773666228.476474,225.1682,0.2278,0.0252,234.0777,-0.0380,0.0119,5.6622,0.0673,229.9642,-0.6941,0.001404,-0.461021,5.6626,True,248.2800,0.0000
1773666228.584131,225.7385,0.1145,0.0250,234.5539,0.0879,-0.0014,5.6088,-0.0076,229.9642,-0.6941,0.003238,-0.607102,5.6088,True,248.8800,0.0000
1773666228.708366,225.8509,0.0918,0.0250,234.5539,0.0879,-0.0014,5.6088,-0.0076,229.9642,-0.6941,-0.004093,-0.543673,5.6088,True,249.1200,0.0000
1773666228.866930,225.8367,-0.2748,0.0601,234.8497,0.0169,0.0003,5.6356,0.0020,231.3096,-0.5202,0.003124,-0.435242,5.6356,True,250.0800,0.0000
1773666228.981012,226.5246,-0.4405,0.0599,235.1264,-0.0157,0.0076,5.5265,0.0423,236.2644,1.8239,0.008635,-0.419796,5.5266,True,250.7400,0.0000
1773666229.088707,228.7631,0.6436,-0.1893,237.3551,-0.0292,-0.0047,5.3077,-0.0251,237.5996,-4.0974,0.000138,-0.532523,5.3077,True,251.4600,0.0000
1773666229.177757,230.5178,-1.3392,-0.1201,237.8061,-0.0506,0.0057,5.3007,0.0303,237.5996,-4.0974,0.002279,-0.542597,5.3008,True,252.1200,0.0000
1773666229.277318,232.1413,-0.2116,-0.2420,238.2913,0.0386,-0.0024,5.1492,-0.0124,240.3012,1.3272,0.000536,-0.361294,5.1492,True,253.0200,0.0000
1773666229.376237,232.6648,-0.2006,-0.2420,238.8085,0.1335,-0.0041,5.2318,-0.0216,240.3012,1.3272,-0.005429,-0.178705,5.2318,True,253.6200,0.0000
1773666229.478134,233.2616,0.5814,-0.3461,239.3335,0.0471,0.0039,5.2329,0.0206,239.4307,1.4961,-0.005875,-0.088159,5.2329,True,254.2200,0.0000
1773666229.576335,233.8326,0.6360,-0.3462,239.8752,-0.0200,-0.0050,5.0649,-0.0255,239.4307,1.4961,0.004709,-0.148306,5.0649,True,254.8200,0.0000
1773666229.676456,234.0151,0.8065,-0.3469,240.3554,0.0196,0.0027,5.3041,0.0142,239.4695,0.9344,0.000395,-0.148276,5.3041,True,255.4200,0.0000
1773666229.777016,234.6950,0.8736,-0.3470,240.8897,-0.0023,0.0007,5.0781,0.0037,239.4695,0.9344,0.000710,-0.265907,5.0781,True,256.0200,0.0000
1773666229.876290,234.5082,0.9659,-0.3305,241.3155,0.0572,-0.0044,5.2288,-0.0231,239.5474,1.0912,0.013379,-0.331411,5.2288,True,256.6200,0.0000
1773666229.976871,235.0598,1.0121,-0.3302,241.8666,0.0759,0.0044,5.0193,0.0220,239.5474,1.0912,0.008969,-0.373718,5.0194,True,257.2200,0.0000
1773666230.081433,235.1600,0.0002,-0.2037,242.4152,0.0691,-0.0013,5.1106,-0.0067,240.8812,-0.9170,0.005154,-0.310710,5.1106,True,257.7000,0.0000
1773666230.179075,235.6707,-0.0648,-0.2039,242.8094,-0.0511,-0.0086,4.8494,-0.0419,240.8812,-0.9170,0.000464,-0.344632,4.8496,True,258.3000,0.0000
1773666230.277407,237.2957,0.7047,-0.2861,243.3167,0.0535,0.0102,4.7941,0.0488,245.3831,1.3466,-0.000560,-0.308091,4.7943,True,258.8400,0.0000
1773666230.376634,237.8223,0.7285,-0.2885,243.6433,0.0325,0.0063,4.9966,0.0313,245.3831,1.3466,-0.003465,-0.286486,4.9967,True,259.4400,0.0000
1773666230.477310,238.7851,-1.1459,-0.1142,244.2441,-0.0122,0.0011,4.7896,0.0053,246.0228,-3.0025,0.010300,-0.273313,4.7896,True,260.0400,0.0000
1773666230.576496,239.1688,-1.2633,-0.1142,244.7492,0.0124,0.0116,4.9733,0.0578,246.0228,-3.0025,0.006519,-0.310316,4.9736,True,260.6400,0.0000
1773666230.676466,239.4043,0.5658,-0.2700,245.1895,0.0683,-0.0030,5.1311,-0.0154,244.8518,2.8335,0.010931,-0.455725,5.1311,True,261.2400,0.0000
1773666230.776578,239.8998,0.5788,-0.2710,245.6314,0.0668,-0.0052,4.8165,-0.0253,244.8518,2.8335,0.004792,-0.342111,4.8166,True,261.7200,0.0000
1773666230.882935,239.5190,-0.9752,-0.1635,246.0326,-0.0090,0.0035,4.8436,0.0171,244.3683,-2.7691,0.003527,-0.216072,4.8437,True,262.1400,0.0000
1773666230.976471,239.9845,-1.0606,-0.1660,246.5613,0.0343,-0.0025,4.7435,-0.0117,244.3683,-2.7691,-0.001613,-0.168572,4.7435,True,262.8600,0.0000
1773666231.082670,241.8150,-0.4705,-0.2347,246.9674,0.0358,0.0056,4.8153,0.0268,250.2137,0.2041,-0.008418,-0.149642,4.8154,True,263.4600,0.0000
1773666231.176331,242.2433,-0.4979,-0.2342,247.5423,0.1666,0.0032,4.8252,0.0157,250.2137,0.2041,0.001149,-0.112091,4.8252,True,263.9400,0.0000
1773666231.276915,242.3159,0.3603,-0.3012,247.8931,0.1043,-0.0009,4.8095,-0.0046,247.3600,1.3694,0.006337,-0.158500,4.8095,True,264.5400,0.0000
1773666231.376572,242.7219,0.3810,-0.3012,248.3730,0.0029,0.0029,4.7293,0.0137,247.3600,1.3694,0.000444,0.053873,4.7293,True,265.1400,0.0000
1773666231.478657,243.2334,1.2070,-0.3618,248.8882,0.1041,-0.0022,4.6856,-0.0103,248.9731,1.9729,0.001443,-0.134523,4.6856,True,265.7400,0.0000
1773666231.577069,243.7751,1.2862,-0.3616,249.3973,0.0566,-0.0047,4.8870,-0.0230,248.9731,1.9729,-0.001578,-0.279260,4.8870,True,266.3400,0.0000
1773666231.676794,244.9780,1.2060,-0.3643,249.7834,0.0584,-0.0080,4.7508,-0.0380,252.2224,0.7507,-0.002905,-0.187715,4.7510,True,266.9400,0.0000
1773666231.777214,245.5089,1.2961,-0.3641,250.2593,0.0627,0.0031,4.6173,0.0143,252.2224,0.7507,0.001692,-0.168879,4.6173,True,267.5400,0.0000
1773666231.877018,245.1824,-0.8730,-0.2272,250.6514,-0.0055,-0.0077,4.7485,-0.0363,250.5223,-2.7568,0.001825,-0.292186,4.7486,True,268.1400,0.0000
1773666231.977125,245.6289,-1.0076,-0.2272,251.1413,-0.0003,0.0006,4.6100,0.0030,250.5223,-2.7568,-0.003371,-0.506132,4.6100,True,268.7400,0.0000
1773666232.076793,245.9843,-1.5185,-0.2078,251.6509,-0.0320,0.0042,4.5372,0.0191,252.0978,-1.7502,0.001435,-0.284094,4.5372,True,269.3400,0.0000
1773666232.177367,246.4120,-1.6853,-0.2078,252.0916,0.0449,0.0017,4.5116,0.0077,252.0978,-1.7502,-0.001275,-0.212604,4.5116,True,269.9400,0.0000
1773666232.276395,245.4249,0.7567,-0.3069,252.5392,0.0885,-0.0041,4.6204,-0.0190,248.8568,3.8852,0.002739,0.026211,4.6204,True,270.5400,0.0000
1773666232.377048,246.0112,0.7324,-0.3077,253.0837,-0.0296,0.0023,4.7772,0.0110,248.8568,3.8852,-0.010675,-0.033485,4.7772,True,271.1400,0.0000
1773666232.477117,246.1406,-0.5406,-0.2257,253.5127,-0.0655,-0.0040,4.4991,-0.0178,252.0565,-1.5578,0.001389,-0.046118,4.4991,True,271.7400,0.0000
1773666232.576484,246.4886,-0.6577,-0.2257,253.9857,-0.0922,0.0113,4.5262,0.0511,252.0565,-1.5578,0.000059,-0.240124,4.5265,True,272.3400,0.0000
1773666232.676952,247.8894,1.8470,-0.3458,254.3217,0.0847,0.0001,4.4626,0.0003,255.0023,4.4789,-0.001075,-0.415903,4.4626,True,272.9400,0.0000
1773666232.777117,248.3823,1.9220,-0.3458,254.7993,0.0613,0.0091,4.2201,0.0383,255.0023,4.4789,-0.004501,-0.183547,4.2202,True,273.5400,0.0000
1773666232.877065,247.0958,0.7829,-0.2715,255.2765,0.0176,0.0018,4.5191,0.0080,250.4613,-0.1207,-0.001924,-0.200172,4.5191,True,274.1400,0.0000
1773666232.981093,247.5414,0.7228,-0.2715,255.6640,-0.0356,-0.0078,4.5211,-0.0353,250.4613,-0.1207,-0.006255,-0.141006,4.5212,True,274.7400,0.0000
1773666233.077309,248.8512,1.0916,-0.3124,256.1732,0.0345,0.0047,4.2701,0.0201,256.4088,1.2476,0.008055,-0.170997,4.2701,True,275.3400,0.0000
1773666233.176624,249.2424,1.0881,-0.3121,256.6629,0.1234,0.0006,4.4875,0.0028,256.4088,1.2476,0.006442,0.028764,4.4875,True,275.9400,0.0000
1773666233.278638,249.8721,-0.1149,-0.2363,257.0856,-0.0186,0.0004,4.3203,0.0017,256.7892,-1.1961,0.005254,0.138559,4.3203,True,276.4800,0.0000
1773666233.380700,250.2858,-0.2276,-0.2365,257.4500,0.0274,-0.0003,4.4077,-0.0012,256.7892,-1.1961,0.002997,0.323041,4.4077,True,277.1400,0.0000
1773666233.476576,251.0931,-0.1768,-0.2488,257.9564,0.0722,0.0026,4.3759,0.0115,257.9466,-0.0657,0.007343,0.146212,4.3760,True,277.6200,0.0000
1773666233.584708,251.5437,-0.2688,-0.2483,258.2444,-0.0112,0.0022,4.5405,0.0099,257.9466,-0.0657,-0.002386,0.135133,4.5406,True,278.2200,0.0000
1773666233.686704,252.5429,0.3002,-0.2560,258.7226,0.0448,0.0060,4.3849,0.0262,259.6437,0.7241,-0.002419,0.288455,4.3849,True,278.8200,0.0000
1773666233.779069,253.0083,0.2958,-0.2556,259.1681,0.0880,-0.0092,4.4260,-0.0409,259.6437,0.7241,-0.003962,0.361331,4.4261,True,279.3600,0.0000
1773666233.876376,253.3674,1.3130,-0.2196,259.6077,0.1277,0.0084,4.6173,0.0386,259.1341,2.1034,0.005692,0.366907,4.6175,True,279.9600,0.0000
1773666233.977512,253.9487,1.4433,-0.2189,260.0598,-0.0515,-0.0064,4.5399,-0.0289,259.1341,2.1034,0.013725,0.383529,4.5400,True,280.5000,0.0000
1773666234.077157,254.5858,-0.8660,-0.4030,260.5699,0.0150,-0.0042,4.7533,-0.0197,261.6322,-2.7630,0.000114,0.560899,4.7534,True,281.1000,0.0000
1773666234.177299,255.0296,-1.0194,-0.4029,260.8765,0.0113,0.0044,4.6545,0.0206,261.6322,-2.7630,-0.003716,0.546088,4.6545,True,281.7000,0.0000
1773666234.277171,255.7253,-0.3522,-0.3216,261.4118,-0.0489,-0.0035,4.6280,-0.0164,262.1065,0.4793,0.000205,0.732418,4.6280,True,282.3000,0.0000
1773666234.376715,256.1089,-0.4153,-0.3215,261.9215,0.0498,0.0086,4.8749,0.0421,262.1065,0.4793,0.004910,0.715744,4.8751,True,282.9000,0.0000
1773666234.477169,256.2756,-0.2108,-0.3002,262.4542,-0.0297,0.0040,4.8373,0.0194,261.6123,0.2372,0.005149,0.607008,4.8374,True,283.5000,0.0000
1773666234.577035,256.7715,-0.2798,-0.2999,262.9190,-0.0154,0.0052,4.9353,0.0257,261.6123,0.2372,-0.002490,0.489101,4.9354,True,284.1000,0.0000
1773666234.676462,254.6333,-1.7574,-0.7997,263.3106,-0.0215,0.0049,4.9734,0.0241,256.9523,-2.2614,-0.001079,0.583856,4.9734,True,284.7000,0.0000
1773666234.777140,255.1393,-2.0994,-0.7997,263.8210,0.0352,0.0058,4.9154,0.0287,256.9523,-2.2614,0.000672,0.627128,4.9155,True,285.3000,0.0000
1773666234.877156,256.7282,-3.0382,-0.7301,264.3182,-0.0573,-0.0001,5.2480,-0.0007,265.1693,-4.1279,-0.004779,0.516444,5.2480,True,285.9000,0.0000
1773666234.976663,256.9875,-3.2035,-0.7313,265.0540,0.0107,-0.0003,5.1990,-0.0018,265.1693,-4.1279,-0.000146,0.602308,5.1990,True,286.5000,0.0000
1773666235.077202,259.1932,-1.1780,-0.2890,265.4672,0.0762,-0.0040,5.3418,-0.0213,267.6423,2.0182,-0.001072,0.471437,5.3418,True,287.1000,0.0000
1773666235.176565,259.6110,-1.2502,-0.2882,266.0577,-0.0206,0.0077,5.1867,0.0397,267.6423,2.0182,0.000309,0.562280,5.1869,True,287.7000,0.0000
1773666235.277196,259.6499,-1.8338,-0.2509,266.4881,-0.0037,-0.0072,5.2656,-0.0381,264.5261,-2.6833,-0.000755,0.552695,5.2658,True,288.3000,0.0000
1773666235.376574,260.0680,-1.9107,-0.2508,267.0245,-0.0361,-0.0028,5.3472,-0.0150,264.5261,-2.6833,-0.001450,0.629471,5.3473,True,288.9000,0.0000
1773666235.476638,260.3714,-0.2877,-0.1628,267.5483,-0.0457,0.0056,5.4417,0.0303,266.0119,2.6177,-0.013727,0.748724,5.4418,True,289.5000,0.0000
1773666235.577078,261.0220,-0.3293,-0.1629,268.1378,0.0077,0.0002,5.4328,0.0010,266.0119,2.6177,0.004637,0.626087,5.4328,True,290.1000,0.0000
1773666235.676726,262.1578,-1.5059,-0.3337,268.7417,0.0064,0.0052,5.6465,0.0293,269.6971,-3.0376,0.000514,0.692236,5.6466,True,290.7000,0.0000
1773666235.780050,262.7219,-1.6304,-0.3332,269.1287,0.0193,-0.0032,5.5037,-0.0175,269.6971,-3.0376,0.001441,0.594483,5.5037,True,291.0000,0.0000
1773666235.929373,262.8284,-1.6535,-0.3332,269.1287,0.0193,-0.0032,5.5037,-0.0175,269.6971,-3.0376,0.000406,0.605533,5.5037,True,291.6000,0.0000
1773666236.133119,264.8103,-0.5810,-0.0519,269.5492,0.0046,0.0114,5.9168,0.0674,272.1697,0.5904,0.003083,0.419070,5.9172,True,292.8600,0.0000
1773666236.271149,264.6294,1.1390,0.1612,269.7277,0.1002,0.0068,5.7984,0.0397,268.8015,3.2778,-0.002716,0.729508,5.7985,True,293.5800,0.0000
1773666236.291035,264.7412,1.1581,0.1611,270.0882,-0.0026,-0.0028,5.8076,-0.0160,269.8281,0.9642,0.010909,0.686921,5.8077,True,293.7000,0.0000
1773666236.376391,264.8904,1.2028,0.1557,272.3142,-0.0308,-0.0020,6.0617,-0.0122,269.8281,0.9642,0.003048,0.726150,6.0617,True,294.1800,0.0000
1773666236.476882,266.4313,1.3435,0.1324,273.2251,0.0053,-0.0059,6.0509,-0.0359,273.1931,1.2137,-0.000336,0.592016,6.0510,True,295.0800,0.0000
1773666236.577293,267.0955,1.4405,0.1326,273.8150,0.0118,0.0003,6.1479,0.0017,273.1931,1.2137,-0.004138,0.586757,6.1479,True,295.9200,0.0000
1773666236.676569,267.9812,0.2716,-0.1104,274.3644,0.0529,0.0027,6.0972,0.0163,274.7302,-1.0881,0.002640,0.467623,6.0972,True,296.5200,0.0000
1773666236.777037,268.6013,0.2476,-0.1110,275.0016,0.0351,0.0073,6.1644,0.0450,274.7302,-1.0881,0.000452,0.424029,6.1646,True,297.1200,0.0000
1773666236.877330,269.1176,-0.6418,-0.2267,275.6780,0.0661,0.0107,6.2402,0.0667,274.7108,-1.6676,0.006228,0.568332,6.2406,True,297.7200,0.0000
1773666236.977154,269.7548,-0.7248,-0.2266,276.2551,0.0442,-0.0003,6.3619,-0.0020,274.7108,-1.6676,-0.005885,0.461768,6.3619,True,298.3200,0.0000
1773666237.078420,270.3579,-0.0159,-0.0903,276.8617,0.1102,0.0052,6.4663,0.0337,276.5290,0.8335,0.003899,0.305800,6.4664,True,298.9200,0.0000
1773666237.176903,271.0033,-0.0323,-0.0900,277.5364,-0.0019,0.0007,6.4354,0.0045,276.5290,0.8335,-0.001625,0.294079,6.4354,True,299.5200,0.0000
1773666237.276692,271.3262,-0.2631,-0.1393,278.1817,0.0540,0.0102,6.5829,0.0674,277.0765,-0.4479,-0.002220,0.241322,6.5832,True,300.1200,0.0000
1773666237.376372,271.9707,-0.3057,-0.1385,278.8976,-0.0115,0.0085,6.5046,0.0555,277.0765,-0.4479,0.004795,0.345263,6.5048,True,300.7200,0.0000
1773666237.479706,273.5056,1.1201,0.0708,279.4003,0.0690,0.0012,6.3738,0.0077,281.1329,2.6792,-0.003123,0.415655,6.3738,True,301.3200,0.0000
1773666237.582942,274.1681,1.1965,0.0721,280.0690,0.0176,0.0047,6.7866,0.0316,281.1329,2.6792,-0.002485,0.520183,6.7867,True,301.8600,0.0000
1773666237.677202,274.1261,-0.1666,-0.0679,280.7776,0.0901,0.0028,6.6995,0.0186,278.7660,-1.9513,0.001893,0.543828,6.6996,True,302.5200,0.0000
1773666237.776361,274.6553,-0.1749,-0.0683,281.3355,0.0366,-0.0029,6.5468,-0.0192,278.7660,-1.9513,-0.008793,0.473321,6.5468,True,303.1200,0.0000
1773666237.878364,275.4586,0.5442,0.0197,282.1116,0.0432,-0.0109,6.6138,-0.0721,281.7921,1.3342,0.001623,0.652899,6.6142,True,303.7200,0.0000
1773666237.976601,276.1303,0.5934,0.0197,282.7462,0.0142,-0.0080,6.7913,-0.0546,281.7921,1.3342,-0.000194,0.559728,6.7915,True,304.3200,0.0000
1773666238.077235,277.4548,0.9593,0.0640,283.4744,0.0982,0.0042,6.6866,0.0284,284.3346,1.1580,0.009415,0.440496,6.6866,True,304.9200,0.0000
1773666238.177806,278.1288,1.0372,0.0636,284.0802,0.0045,0.0011,6.7982,0.0075,284.3346,1.1580,0.001569,0.688893,6.7982,True,305.5200,0.0000
1773666238.277231,278.5710,1.3225,0.0976,284.7628,0.0808,-0.0048,7.0207,-0.0339,284.0646,1.3748,0.004314,0.628654,7.0208,True,306.1200,0.0000
1773666238.376695,279.1201,1.4037,0.0976,285.4678,-0.0164,0.0086,7.0034,0.0599,284.0646,1.3748,0.007405,0.507284,7.0037,True,306.7200,0.0000
1773666238.476496,280.5105,1.4250,0.0730,286.1838,0.0405,-0.0042,7.0366,-0.0294,287.8078,1.2931,0.000499,0.490549,7.0366,True,307.3200,0.0000
1773666238.576506,281.2065,1.5119,0.0730,286.8952,0.1101,0.0120,6.9690,0.0834,287.8078,1.2931,0.004669,0.449139,6.9695,True,307.9200,0.0000
1773666238.676532,280.7945,-1.0623,-0.4014,287.6390,0.1190,0.0018,7.0509,0.0124,284.7180,-3.3422,0.001879,0.360377,7.0509,True,308.5200,0.0000
1773666238.776716,281.4935,-1.2454,-0.4019,288.3323,0.0567,-0.0050,7.0718,-0.0352,284.7180,-3.3422,0.002402,0.487240,7.0719,True,309.1200,0.0000
1773666238.876679,280.8129,-0.8919,-0.3940,289.0168,0.0019,-0.0065,7.3687,-0.0481,284.3722,0.0538,0.011057,0.650212,7.3689,True,309.7200,0.0000
1773666238.977143,281.5318,-1.0765,-0.3935,289.7367,0.0494,0.0023,7.3958,0.0167,284.3722,0.0538,0.006195,0.355570,7.3958,True,310.3200,0.0000
1773666239.077225,284.7345,-0.1037,-0.2562,290.4456,0.0483,0.0025,7.1991,0.0183,294.6262,1.3672,0.000824,0.324336,7.1991,True,310.9200,0.0000
1773666239.176742,285.3332,-0.1817,-0.2547,291.2076,-0.0603,-0.0055,7.4370,-0.0410,294.6262,1.3672,0.003816,0.287916,7.4371,True,311.5200,0.0000
1773666239.277112,285.9797,-1.5736,-0.3857,292.0347,-0.0433,-0.0017,7.4441,-0.0125,291.6117,-3.0204,-0.016019,0.365927,7.4441,True,312.1200,0.0000
1773666239.377510,286.6892,-1.7531,-0.3862,292.6423,0.0985,0.0034,7.2001,0.0245,291.6117,-3.0204,-0.001580,0.494044,7.2002,True,312.7200,0.0000
1773666239.476706,287.5810,0.7724,-0.1889,293.4696,0.0707,0.0012,7.6607,0.0095,293.7717,4.3462,-0.003002,0.553691,7.6607,True,313.3200,0.0000
1773666239.577367,288.4966,0.7140,-0.1894,294.2072,0.0245,0.0011,7.4934,0.0085,293.7717,4.3462,-0.003321,0.392516,7.4934,True,313.9200,0.0000
1773666239.676397,288.3268,1.9002,-0.0873,294.8630,0.0700,-0.0016,7.5229,-0.0118,292.8287,3.5124,-0.004673,0.276879,7.5230,True,314.5200,0.0000
1773666239.776388,289.0769,1.9229,-0.0875,295.6997,0.1295,-0.0021,7.5488,-0.0161,292.8287,3.5124,0.003946,0.178854,7.5488,True,315.1200,0.0000
1773666239.876502,289.8167,-1.8661,-0.5172,296.4779,0.0014,0.0079,7.4343,0.0590,296.1780,-6.2135,0.002638,0.080010,7.4345,True,315.7200,0.0000
1773666239.976843,290.6749,-2.1816,-0.5174,297.2133,0.0887,0.0039,7.4784,0.0293,296.1780,-6.2135,0.000215,0.351780,7.4785,True,316.3200,0.0000
1773666240.076410,292.8219,-1.2200,-0.4187,297.9140,-0.0125,0.0002,7.7081,0.0013,301.4141,0.3680,0.004106,0.352949,7.7081,True,316.9200,0.0000
1773666240.176583,293.5752,-1.4078,-0.4190,298.6433,0.0553,0.0055,7.5143,0.0410,301.4141,0.3680,0.006861,0.201267,7.5144,True,317.5200,0.0000
1773666240.276603,294.0948,-0.9389,-0.3768,299.6102,0.0860,0.0031,7.5540,0.0231,299.5822,0.0172,0.004170,0.477000,7.5541,True,318.1200,0.0000
1773666240.376658,294.8656,-1.0878,-0.3767,300.2410,-0.0022,0.0050,7.7631,0.0387,299.5822,0.0172,0.008851,0.190214,7.7632,True,318.7200,0.0000
1773666240.477448,295.3831,-0.2881,-0.3212,300.9740,0.0627,-0.0016,7.7609,-0.0127,300.3041,1.0358,-0.005705,0.136174,7.7609,True,319.3200,0.0000
1773666240.577076,296.1687,-0.3780,-0.3213,301.8459,0.0402,-0.0015,7.7545,-0.0120,300.3041,1.0358,0.003324,0.048702,7.7545,True,319.9200,0.0000
1773666240.676381,296.7249,0.4435,-0.2586,302.6352,0.0072,0.0045,7.8257,0.0349,302.3673,1.4142,-0.005238,0.101611,7.8258,True,320.5200,0.0000
1773666240.776265,297.5334,0.4280,-0.2588,303.3469,0.0036,-0.0025,7.9107,-0.0201,302.3673,1.4142,0.001064,0.209830,7.9107,True,321.1200,0.0000
1773666240.876939,298.2661,0.0103,-0.2873,304.0326,0.0194,-0.0035,7.7941,-0.0274,304.2047,-0.3363,-0.008140,0.285876,7.7942,True,321.7200,0.0000
1773666240.977450,299.2324,-0.0646,-0.2872,304.8204,0.1203,0.0054,7.9669,0.0432,304.2047,-0.3363,0.008408,0.362737,7.9670,True,322.3200,0.0000
1773666241.076600,299.7083,0.4346,-0.2618,305.7695,0.0556,0.0057,7.9979,0.0459,305.2633,1.0004,-0.008172,0.344544,7.9980,True,322.9200,0.0000
1773666241.176324,300.5216,0.4202,-0.2620,306.5049,0.1157,-0.0010,7.9492,-0.0076,305.2633,1.0004,0.000391,0.047096,7.9492,True,323.5200,0.0000
1773666241.276656,301.7135,-0.2942,-0.2997,307.0980,-0.0084,0.0048,7.9316,0.0379,308.5107,-0.9697,-0.008703,0.150145,7.9317,True,324.0000,0.0000
1773666241.376651,302.5139,-0.3735,-0.2996,307.8091,0.0458,-0.0053,7.9484,-0.0421,308.5107,-0.9697,0.000253,0.266926,7.9485,True,324.6000,0.0000
1773666241.485888,301.9123,-1.1541,-0.3637,308.5998,0.0898,-0.0136,7.6784,-0.1041,305.9406,-1.2980,-0.003225,0.107637,7.6791,True,325.1400,0.0000
1773666241.576468,302.6760,-1.3519,-0.3640,309.1712,-0.0127,0.0033,7.8176,0.0256,305.9406,-1.2980,-0.004969,-0.040227,7.8176,True,325.6200,0.0000
1773666241.679329,303.4118,0.6105,-0.2564,310.0118,0.0537,-0.0009,7.9786,-0.0073,308.9202,2.6101,0.001340,-0.233790,7.9786,True,326.1000,0.0000
1773666241.790974,304.2372,0.6263,-0.2563,310.6148,0.0640,0.0052,7.7997,0.0406,308.9202,2.6101,-0.007247,-0.176899,7.7998,True,326.6400,0.0000
1773666241.909827,305.3269,1.3732,-0.2286,311.2011,-0.0490,-0.0075,7.5798,-0.0571,311.9517,1.8992,0.003401,-0.237674,7.5800,True,326.9400,0.0000
1773666241.977932,306.2129,1.4829,-0.2290,311.6149,0.0142,0.0053,7.8825,0.0415,311.9517,1.8992,0.002916,-0.368180,7.8826,True,327.3000,0.0000
1773666242.079802,306.9567,-0.5640,-0.2205,312.3202,0.0000,0.0079,7.6761,0.0604,313.3349,-2.5197,0.002971,-0.362257,7.6763,True,328.0200,0.0000
1773666242.176420,307.7313,-0.6918,-0.2207,313.1293,0.0720,-0.0035,7.9523,-0.0276,313.3349,-2.5197,-0.002042,-0.321605,7.9524,True,328.6200,0.0000
1773666242.276816,308.2997,-1.8888,-0.1511,313.9058,0.0189,-0.0012,7.9760,-0.0095,314.1912,-2.5721,0.008046,-0.305339,7.9760,True,329.2200,0.0000
1773666242.377564,309.1906,-2.1792,-0.1556,314.7648,0.0174,0.0035,7.6264,0.0266,314.1912,-2.5721,0.001191,-0.170831,7.6265,True,329.8200,0.0000
1773666242.476626,309.5346,-1.8257,-0.2096,315.5090,0.1282,-0.0021,7.8616,-0.0166,315.0182,-1.1995,-0.002406,-0.115835,7.8616,True,330.4200,0.0000
1773666242.576477,310.2817,-2.0215,-0.2084,316.3226,0.0539,-0.0002,7.6892,-0.0013,315.0182,-1.1995,0.005073,-0.068489,7.6892,True,331.0200,0.0000
1773666242.676750,310.3343,-1.4718,-0.2827,317.0695,0.0826,0.0139,7.7230,0.1075,314.9702,-0.6230,0.005878,-0.073961,7.7238,True,331.6200,0.0000
1773666242.777341,311.2428,-1.6268,-0.2829,317.9005,0.0808,0.0056,7.6309,0.0424,314.9702,-0.6230,-0.003480,-0.129281,7.6310,True,332.2200,0.0000
1773666242.876492,312.5573,-1.0392,-0.3805,318.5849,0.0022,-0.0001,7.6973,-0.0007,319.5882,-0.5173,-0.001959,-0.268640,7.6973,True,332.8200,0.0000
1773666242.986128,313.3577,-1.0923,-0.3811,319.3807,0.0247,0.0011,7.5124,0.0085,319.5882,-0.5173,0.000969,-0.297632,7.5124,True,333.2400,0.0000
1773666243.076635,313.7826,-2.1299,-0.2336,319.8364,0.0069,-0.0071,7.5760,-0.0535,319.6631,-2.8733,-0.000057,-0.350529,7.5762,True,333.8400,0.0000
1773666243.176476,314.5254,-2.2885,-0.2337,320.6005,-0.0607,-0.0002,7.6598,-0.0013,319.6631,-2.8733,-0.001836,-0.720358,7.6598,True,334.4400,0.0000
1773666243.277172,316.1000,-0.9615,-0.2788,321.3530,-0.0014,-0.0069,7.4822,-0.0514,322.9344,0.9947,-0.010037,-0.516958,7.4824,True,335.0400,0.0000
1773666243.376712,316.7041,-1.0351,-0.2765,322.1272,-0.0375,-0.0007,7.5965,-0.0051,322.9344,0.9947,0.010512,-0.627990,7.5965,True,335.6400,0.0000
1773666243.476430,318.1973,0.2306,-0.3475,322.9077,0.0257,0.0064,7.3680,0.0469,325.2716,1.9823,-0.003559,-0.520810,7.3682,True,336.2400,0.0000
1773666243.577438,319.1202,0.2037,-0.3461,323.6570,0.1468,-0.0019,7.3824,-0.0142,325.2716,1.9823,-0.006345,-0.639572,7.3824,True,336.8400,0.0000
1773666243.677197,319.5049,1.1553,-0.0819,324.3277,0.0835,0.0086,7.1634,0.0617,324.7548,3.2019,0.003134,-0.407684,7.1636,True,337.4400,0.0000
1773666243.776430,320.0924,1.1165,-0.1160,324.9654,0.0581,-0.0003,7.1233,-0.0018,324.7548,3.2019,-0.002933,-0.463298,7.1233,True,338.0400,0.0000
1773666243.885361,320.4300,0.4615,-0.0427,325.8109,0.1040,-0.0040,7.2177,-0.0285,325.8918,-0.2263,-0.000182,-0.233065,7.2178,True,338.6400,0.0000
1773666243.976772,321.1922,0.3387,-0.0433,326.3759,0.0895,-0.0001,7.1466,-0.0006,325.8918,-0.2263,-0.000967,-0.360429,7.1466,True,339.1200,0.0000
1773666244.078107,322.9942,-0.0465,-0.0137,326.9377,0.0565,0.0089,7.0607,0.0630,331.0195,-0.3941,-0.001704,-0.596368,7.0610,True,339.5400,0.0000
1773666244.176701,323.6521,-0.1645,-0.0139,327.5868,-0.0180,-0.0008,7.0624,-0.0056,331.0195,-0.3941,0.000750,-0.689565,7.0624,True,340.2000,0.0000
1773666244.282308,323.6168,0.4260,-0.1108,328.2761,0.0570,-0.0003,6.9557,-0.0023,328.2845,1.3896,-0.006829,-0.647445,6.9557,True,340.8000,0.0000
1773666244.377198,324.4292,0.3352,-0.1131,329.0606,0.0859,0.0024,6.7430,0.0162,328.2845,1.3896,0.003046,-0.538075,6.7430,True,341.4000,0.0000
1773666244.476569,324.1303,0.0005,-0.0490,329.7088,-0.0023,-0.0027,6.9113,-0.0188,328.6763,-0.1966,-0.002445,-0.484656,6.9113,True,342.0000,0.0000
1773666244.578655,324.8515,-0.1094,-0.0513,330.5566,0.0203,0.0013,6.7849,0.0087,328.6763,-0.1966,-0.008403,-0.583735,6.7849,True,342.6000,0.0000
1773666244.677374,324.3070,-0.6202,-0.1838,331.0906,0.1302,-0.0072,6.8159,-0.0491,328.1915,-1.4990,0.000442,-0.684881,6.8161,True,343.1400,0.0000
1773666244.848868,324.3070,-0.6202,-0.1838,331.0906,0.1302,-0.0072,6.8159,-0.0491,328.1915,-1.4990,0.000442,-0.684881,6.8161,True,343.1400,0.0000
1773666244.882285,324.8273,-0.6473,-0.1954,332.4093,0.0829,0.0070,6.5863,0.0464,332.3686,-0.9577,0.004398,-0.656967,6.5864,True,343.9200,0.0000
1773666244.976839,326.4860,-0.8832,-0.1693,332.9584,0.0104,0.0084,6.6179,0.0555,332.3686,-0.9577,0.003429,-0.489766,6.6181,True,344.8800,0.0000
1773666245.076475,327.8013,-0.4402,-0.1727,333.5712,0.0299,0.0045,6.5266,0.0292,335.0781,0.3369,-0.008606,-0.595478,6.5267,True,345.4800,0.0000
1773666245.176793,328.4506,-0.5019,-0.1656,334.3021,-0.0110,-0.0090,6.5080,-0.0584,335.0781,0.3369,-0.003966,-0.561139,6.5083,True,346.0800,0.0000
1773666245.276460,330.3489,0.5966,0.1167,334.9836,-0.0276,-0.0014,6.4050,-0.0088,338.6998,3.1180,-0.006482,-0.553954,6.4050,True,346.6800,0.0000
1773666245.376247,331.0029,0.4165,0.1172,335.5710,-0.0039,0.0069,6.3057,0.0436,338.6998,3.1180,0.007551,-0.543465,6.3058,True,347.2800,0.0000
1773666245.476990,331.3130,0.4439,0.1011,336.2854,0.0569,-0.0013,6.3755,-0.0085,336.7701,0.8776,-0.006658,-0.475932,6.3755,True,347.8800,0.0000
1773666245.580613,331.9664,0.2705,0.1006,336.8497,-0.0017,-0.0090,6.2197,-0.0561,336.7701,0.8776,-0.007781,-0.713942,6.2199,True,348.4800,0.0000
1773666245.676806,331.9038,-0.6107,0.0822,337.3083,-0.0076,-0.0028,6.1468,-0.0171,336.6663,-1.7182,0.001979,-0.512477,6.1468,True,348.9600,0.0000
1773666245.777511,332.6491,-0.8101,0.0868,337.9887,-0.0078,0.0004,6.1654,0.0024,336.6663,-1.7182,0.005403,-0.469747,6.1654,True,349.5600,0.0000
1773666245.877466,334.4385,-1.2380,-0.0361,338.5249,0.0863,0.0002,5.7964,0.0011,342.5528,-1.8937,0.000420,-0.572837,5.7964,True,350.1600,0.0000
1773666245.976761,334.9370,-1.3659,-0.0111,339.1602,0.1152,0.0054,6.0497,0.0324,342.5528,-1.8937,0.002744,-0.652433,6.0498,True,350.7600,0.0000
1773666246.077027,335.0704,-0.2788,-0.2519,339.7600,0.0562,-0.0081,6.0267,-0.0487,340.3549,1.0798,-0.001790,-0.572786,6.0268,True,351.3000,0.0000
1773666246.176597,335.6552,-0.3005,-0.2519,340.2764,0.1252,0.0002,5.8706,0.0012,340.3549,1.0798,-0.001422,-0.693456,5.8706,True,351.9000,0.0000
1773666246.279000,336.1749,-0.4361,-0.2328,340.9175,0.0012,-0.0012,5.8820,-0.0070,342.0835,-0.5820,0.006915,-0.622128,5.8820,True,352.4400,0.0000
1773666246.384709,336.1749,-0.4361,-0.2328,340.9175,0.0012,-0.0012,5.8820,-0.0070,342.0835,-0.5820,-0.002536,-0.623399,5.8820,True,352.5600,0.0000
1773666246.476855,336.2742,-0.4408,-0.2329,341.2028,0.1704,-0.0058,5.6756,-0.0327,342.0835,-0.5820,0.010701,-0.564747,5.6757,True,353.1000,0.0000
1773666246.672014,336.8276,-0.1947,-0.2641,341.3485,0.1263,-0.0080,5.8537,-0.0469,341.7297,0.1896,-0.000359,-0.613902,5.8539,True,354.3000,0.0000
1773666246.679966,336.9455,-0.1973,-0.2643,341.6833,0.0523,0.0028,5.8269,0.0161,345.7346,0.7074,-0.005139,-0.714804,5.8269,True,354.3600,0.0000
1773666246.776661,339.0462,0.0213,-0.1873,343.6580,-0.0272,-0.0075,5.6014,-0.0419,345.7346,0.7074,0.002107,-0.541465,5.6015,True,355.4400,0.0000
1773666246.876866,339.0954,-0.2451,-0.1081,344.2031,0.1582,-0.0028,5.4745,-0.0152,344.1723,-0.2785,0.003729,-0.437228,5.4745,True,356.0400,0.0000
1773666246.977886,339.6444,-0.3284,-0.1076,344.8633,0.0299,-0.0026,5.6054,-0.0145,344.1723,-0.2785,0.003499,-0.420279,5.6054,True,356.6400,0.0000
1773666247.077230,340.0461,-1.0141,0.0283,345.4283,0.1069,0.0035,5.3955,0.0186,345.9539,-1.4138,-0.006154,-0.358564,5.3955,True,357.2400,0.0000
1773666247.176870,340.5936,-1.1727,0.0322,345.9882,0.0837,-0.0076,5.3404,-0.0407,345.9539,-1.4138,-0.001952,-0.473265,5.3406,True,357.8400,0.0000
1773666247.276503,340.2373,-1.5912,0.0945,346.5331,0.0040,0.0071,5.5323,0.0392,345.0027,-1.7206,0.009353,-0.393877,5.5324,True,358.4400,0.0000
1773666247.377334,340.9082,-1.8132,0.0943,346.9664,0.0294,0.0055,5.4212,0.0298,345.0027,-1.7206,-0.002010,-0.444428,5.4213,True,359.0400,0.0000
1773666247.476540,341.3356,-1.6478,0.0219,347.4789,0.0653,-0.0004,5.2114,-0.0018,347.5309,-1.3393,0.000638,-0.507049,5.2114,True,359.6400,0.0000
1773666247.577036,341.9814,-1.8216,0.0224,348.0282,0.0899,0.0075,5.4617,0.0412,347.5309,-1.3393,-0.001184,-0.466738,5.4618,True,360.0000,0.0000
1773666247.676590,341.8548,-1.5508,-0.0706,348.5531,0.0444,-0.0032,5.2440,-0.0169,347.0859,-1.2779,0.000226,-0.539021,5.2441,True,360.0000,0.0000
1773666247.776728,342.3787,-1.6414,-0.0687,349.0408,0.0221,0.0003,5.1847,0.0014,347.0859,-1.2779,-0.002190,-0.553967,5.1847,True,360.0000,0.0000
1773666247.877071,343.1539,-0.7891,-0.2443,349.5844,0.0229,0.0046,5.1498,0.0236,349.4913,-0.0887,-0.001200,-0.436027,5.1499,True,360.0000,0.0000
1773666247.977170,343.6778,-0.7706,-0.2430,350.0665,0.0097,0.0001,5.1526,0.0005,349.4913,-0.0887,-0.000401,-0.393151,5.1526,True,360.0000,0.0000
1773666248.076248,344.2585,0.0270,-0.3081,350.5822,-0.0155,-0.0050,4.9671,-0.0248,350.6334,0.8975,-0.003900,-0.502189,4.9671,True,360.0000,0.0000
1773666248.177420,344.8937,0.0984,-0.3061,351.0879,0.1221,0.0020,4.8500,0.0098,350.6334,0.8975,-0.004118,-0.310450,4.8500,True,360.0000,0.0000
1773666248.276412,346.3123,0.1108,-0.3244,351.5745,0.0560,0.0046,4.9980,0.0229,354.2070,-0.1240,0.003137,-0.397930,4.9981,True,360.0000,0.0000
1773666248.376593,346.8507,0.1806,-0.3237,352.1201,0.0879,-0.0046,4.7856,-0.0222,354.2070,-0.1240,0.001203,-0.475684,4.7856,True,360.0000,0.0000
1773666248.477130,346.0582,0.1953,-0.2369,352.5244,-0.0565,0.0067,5.0499,0.0339,349.7480,0.4447,0.000098,-0.280546,5.0500,True,360.0000,0.0000
1773666248.577184,346.5588,0.2257,-0.2400,353.0432,0.0642,-0.0053,4.8257,-0.0256,349.7480,0.4447,0.004130,-0.579118,4.8258,True,360.0000,0.0000
1773666248.676641,346.5506,-0.0493,-0.1677,353.4783,0.0556,-0.0054,4.6647,-0.0252,352.1814,-0.2169,0.000434,-0.568389,4.6648,True,360.0000,0.0000
1773666248.777497,347.0307,-0.0711,-0.1678,353.9416,0.1027,0.0012,4.9668,0.0059,352.1814,-0.2169,-0.000187,-0.382712,4.9668,True,360.0000,0.0000
1773666248.877477,347.7794,-1.8997,-0.0882,354.5360,0.0401,-0.0019,4.7390,-0.0091,354.3716,-4.2563,0.000283,-0.628097,4.7390,True,360.0000,0.0000
1773666248.976669,348.1505,-1.9574,-0.0908,354.9612,0.0700,0.0025,4.7265,0.0118,354.3716,-4.2563,-0.001013,-0.848241,4.7265,True,360.0000,0.0000
1773666249.080509,348.7390,-1.4159,-0.1575,355.3876,0.0705,-0.0129,4.5759,-0.0591,355.1987,-0.6716,0.006339,-1.067195,4.5763,True,360.0000,0.0000
1773666249.176837,349.1841,-1.4489,-0.1574,355.9096,0.0883,0.0083,4.4571,0.0369,355.1987,-0.6716,0.006749,-1.314696,4.4573,True,360.0000,0.0000
1773666249.276764,348.5467,-1.2379,-0.1674,356.2999,0.0510,-0.0056,4.2376,-0.0236,352.8844,-0.8723,0.005355,-1.662647,4.2377,True,360.0000,0.0000
1773666249.377146,349.0363,-1.2616,-0.1672,356.7209,0.1047,0.0055,4.0182,0.0223,352.8844,-0.8723,-0.001354,-1.970355,4.0182,True,360.0000,0.0000
1773666249.476492,349.1142,-0.8598,-0.1421,357.0379,0.1321,-0.0075,3.7575,-0.0282,354.9693,-0.2562,0.002356,-2.292687,3.7576,True,360.0000,0.0000
1773666249.576494,349.4970,-0.8046,-0.2085,357.4807,-0.0145,0.0114,3.4887,0.0398,354.9693,-0.2562,-0.009149,-2.508907,3.4889,True,360.0000,0.0000
1773666249.676454,349.6294,-1.8587,-0.3418,357.7413,0.0969,0.0035,3.4172,0.0119,355.5580,-3.4950,0.001193,-2.678430,3.4172,True,360.0000,0.0000
1773666249.777198,350.0264,-1.8496,-0.3084,358.2465,0.0596,-0.0086,3.1207,-0.0269,355.5580,-3.4950,0.001003,-2.536714,3.1208,True,360.0000,0.0000
1773666249.877293,350.5437,-2.1653,-0.2989,358.4533,0.0218,-0.0061,2.8597,-0.0175,357.2213,-2.7319,0.003271,-2.467904,2.8597,True,360.0000,0.0000
1773666249.977337,350.7777,-2.1499,-0.2979,358.7109,0.0159,-0.0059,2.6857,-0.0159,357.2213,-2.7319,0.004684,-2.376271,2.6857,True,360.0000,0.0000
1773666250.077382,351.5801,-2.6061,-0.1729,359.0167,0.1307,0.0050,2.4574,0.0124,358.8844,-3.2785,-0.003826,-2.206992,2.4574,True,360.0000,0.0000
1773666250.176548,351.7727,-2.6119,-0.1724,359.1725,-0.0287,-0.0074,2.4477,-0.0180,358.8844,-3.2785,-0.006932,-2.084725,2.4477,True,360.0000,0.0000
1773666250.276505,352.5565,-2.0340,-0.1165,359.3944,0.1176,-0.0034,1.9944,-0.0068,359.9889,-1.0485,-0.003931,-1.876183,1.9944,True,360.0000,0.0000
1773666250.377270,352.7893,-2.0352,-0.1332,359.6414,0.1394,0.0071,1.8250,0.0129,359.9889,-1.0485,-0.004444,-1.766584,1.8250,True,360.0000,0.0000
1773666250.476714,352.8713,-1.4704,-0.1496,359.7967,0.1226,-0.0033,1.6507,-0.0054,359.1956,-0.5859,0.007582,-1.588563,1.6507,True,360.0000,0.0000
1773666250.578803,353.0674,-1.4674,-0.1512,360.0177,0.0357,-0.0004,1.6297,-0.0007,359.1956,-0.5859,0.002084,-1.474126,1.6297,True,360.1200,0.0000
1773666250.677820,353.7829,-2.9751,0.0277,360.0409,0.1247,0.0124,1.4394,0.0179,361.3443,-5.0403,0.000004,-1.340721,1.4395,True,360.7200,0.0000
1773666250.778068,353.8655,-3.0171,0.0275,360.3207,0.1147,-0.0019,1.2441,-0.0023,361.3443,-5.0403,0.005931,-1.120207,1.2441,True,361.2000,0.0000
1773666250.891384,354.1475,-1.3046,-0.1602,360.3711,0.0476,0.0035,1.2062,0.0042,360.8682,1.0647,0.006308,-1.081091,1.2062,True,361.8000,0.0000
1773666250.979046,354.2561,-1.2943,-0.1586,360.4278,0.0030,0.0002,1.0322,0.0002,360.8682,1.0647,0.009794,-0.775014,1.0322,True,362.4600,0.0000
1773666251.087627,353.6322,-2.0819,-0.0905,360.4755,0.0638,-0.0063,0.8574,-0.0054,358.8650,-3.2667,0.003844,-0.855051,0.8574,True,363.0600,0.0000
1773666251.177157,353.7274,-2.1051,-0.0887,360.6602,0.0452,-0.0085,0.7172,-0.0061,358.8650,-3.2667,-0.006237,-1.145953,0.7172,True,363.6600,0.0000
1773666251.277306,353.0974,-1.3621,-0.1487,360.6721,0.0103,0.0038,0.8340,0.0032,358.2992,-0.3657,-0.010868,-1.166827,0.8340,True,364.2600,0.0000
1773666251.377191,353.1669,-1.3421,-0.1487,360.7863,0.0440,-0.0066,0.7074,-0.0047,358.2992,-0.3657,-0.006731,-1.104927,0.7074,True,364.8600,0.0000
1773666251.476633,355.4637,-0.6702,-0.2625,360.8763,0.1321,0.0010,0.6753,0.0007,365.9222,-0.2358,-0.001348,-0.920337,0.6753,True,365.4600,0.0000
1773666251.579660,355.5434,-0.5708,-0.2626,360.8863,0.1133,0.0037,0.5350,0.0020,365.9222,-0.2358,-0.002375,-0.650624,0.5350,True,365.9400,0.0000
1773666251.683087,355.4122,0.3502,-0.3220,360.9440,0.0102,0.0025,0.4289,0.0011,361.4421,1.2509,0.001550,-0.696928,0.4289,True,366.4800,0.0000
1773666251.843549,355.4269,0.3724,-0.3221,360.9440,0.0102,0.0025,0.4289,0.0011,361.4421,1.2509,0.001550,-0.696928,0.4289,True,366.8400,0.0000
1773666251.976690,355.4881,0.4780,-0.3213,360.9899,0.0570,-0.0032,0.2412,-0.0008,360.2466,-0.5005,0.004251,-0.309481,0.2412,True,367.6200,0.0000
1773666252.077681,354.2319,1.1110,-0.2938,361.1177,0.0254,0.0106,0.1146,0.0012,359.4779,2.2209,0.001899,-0.066031,0.1146,True,368.4600,0.0000
1773666252.180167,354.2952,1.2403,-0.2891,361.1300,0.0744,0.0041,0.2038,0.0008,359.4779,2.2209,0.001791,0.178037,0.2038,True,369.3000,0.0000
1773666252.287442,353.3493,1.8198,-0.3044,361.1719,0.1047,0.0087,0.1201,0.0010,358.0290,2.3866,0.009919,0.076037,0.1201,True,369.9600,0.0000
1773666252.376726,353.4060,1.9515,-0.3044,361.2056,0.0418,0.0017,0.1835,0.0003,358.0290,2.3866,0.000610,-0.123665,0.1835,True,370.4400,0.0000
1773666252.476952,353.0462,2.1497,-0.2997,361.1670,-0.0445,-0.0037,0.5301,-0.0020,358.8532,2.1978,0.001932,-0.146888,0.5302,True,370.7400,0.0000
1773666252.576436,353.1074,2.2581,-0.2998,361.1783,0.0068,-0.0060,0.3884,-0.0023,358.8532,2.1978,-0.002970,-0.103147,0.3884,True,371.4000,0.0000
1773666252.683165,353.1074,2.2581,-0.2998,361.1783,0.0068,-0.0060,0.3884,-0.0023,358.8532,2.1978,-0.002970,-0.103147,0.3884,True,371.4000,0.0000
1773666252.784022,353.0223,0.0897,-0.1834,361.1706,-0.0743,-0.0003,0.2924,-0.0001,360.0005,-2.0868,-0.008525,-0.034715,0.2924,True,371.7600,0.0000
1773666252.877815,353.0322,-0.0329,-0.1856,361.2802,-0.0015,0.0002,0.3866,0.0001,361.0905,0.0730,0.002435,-0.107252,0.3866,True,372.2400,0.0000
1773666252.978746,353.0352,-0.1198,-0.1857,361.1950,0.0039,-0.0012,0.2733,-0.0003,361.0905,0.0730,-0.009434,0.091071,0.2733,True,372.7800,0.0000
1773666253.085336,353.5801,-0.0753,-0.1983,361.2853,0.0338,-0.0010,0.3152,-0.0003,363.4393,0.3412,-0.005412,0.064190,0.3152,True,373.4400,0.0000
1773666253.176220,354.7946,0.2263,-0.2180,361.3323,0.0269,-0.0002,0.3267,-0.0001,363.4393,0.3412,0.001063,0.168909,0.3267,True,373.9800,0.0000
1773666253.282627,353.9210,0.6744,-0.2222,361.3913,0.0207,-0.0038,0.3090,-0.0012,358.6923,1.2916,-0.008946,0.550828,0.3090,True,374.8200,0.0000
1773666253.385558,353.9720,0.6848,-0.2218,361.4819,0.0211,-0.0006,0.4203,-0.0003,358.6923,1.2916,-0.008350,0.329836,0.4203,True,375.6600,0.0000
1773666253.487572,353.6796,-0.8295,-0.2274,361.5951,-0.0297,0.0052,0.3334,0.0017,360.0143,-1.9280,0.004621,0.222969,0.3334,True,376.2000,0.0000
1773666253.576654,353.6824,-0.9587,-0.2276,361.4594,-0.0476,-0.0008,0.3980,-0.0003,360.0143,-1.9280,-0.003566,0.413660,0.3980,True,376.8000,0.0000
1773666253.677785,354.6392,0.0925,-0.1952,361.5438,0.0034,-0.0105,0.5138,-0.0054,362.5834,0.8179,0.002554,0.314346,0.5138,True,377.2200,0.0000
1773666253.777512,354.6866,0.0972,-0.1958,361.6345,0.0471,-0.0018,0.3620,-0.0006,362.5834,0.8179,-0.006992,0.263225,0.3620,True,377.7600,0.0000
1773666253.876807,354.7398,-0.6528,-0.2225,361.6755,-0.1195,-0.0067,0.5410,-0.0036,361.5043,-1.2737,0.009704,0.088683,0.5410,True,378.4800,0.0000
1773666253.979437,354.7473,-0.6697,-0.2226,361.6755,-0.1195,-0.0067,0.5410,-0.0036,361.5043,-1.2737,-0.003476,0.103172,0.5410,True,378.6000,0.0000
1773666254.083885,354.8761,0.2147,-0.1790,361.7970,0.0980,0.0004,0.5233,0.0002,361.4369,1.0967,0.003072,0.225051,0.5233,True,379.3200,0.0000
1773666254.176874,354.9343,0.2526,-0.1773,361.8750,-0.0111,-0.0097,0.7947,-0.0077,361.4369,1.0967,0.001461,0.483457,0.7947,True,379.9200,0.0000
1773666254.276767,356.6001,1.5644,-0.1220,361.9696,0.0908,0.0011,0.6199,0.0007,365.6873,2.2958,-0.003386,0.502848,0.6199,True,380.8800,0.0000
1773666254.378758,356.6772,1.7382,-0.1216,362.0062,0.0793,-0.0030,0.6374,-0.0019,365.6873,2.2958,-0.001598,0.675976,0.6374,True,381.4200,0.0000
1773666254.476707,355.1897,0.8784,-0.1913,362.0727,0.0547,-0.0004,0.7712,-0.0003,359.0774,0.1826,0.000089,0.669327,0.7712,True,382.0800,0.0000
1773666254.585003,355.2816,0.9126,-0.1915,362.2157,-0.0233,-0.0047,0.9470,-0.0044,359.0774,0.1826,-0.001141,0.455933,0.9471,True,382.5600,0.0000
1773666254.677563,355.8994,1.6160,-0.1517,362.2662,0.0095,0.0014,0.8511,0.0012,363.2836,2.0620,0.001010,0.460631,0.8511,True,383.2200,0.0000
1773666254.776551,356.0103,1.7177,-0.1521,362.3483,-0.0651,-0.0062,0.9344,-0.0058,363.2836,2.0620,-0.001244,0.454787,0.9344,True,383.8200,0.0000
1773666254.876730,357.4276,0.5783,-0.2366,362.4088,0.0328,-0.0114,0.9805,-0.0112,366.4571,-0.7006,0.003260,0.560720,0.9805,True,384.4200,0.0000
1773666254.976632,357.5450,0.5624,-0.2366,362.4925,0.0710,0.0071,1.1321,0.0080,366.4571,-0.7006,-0.011868,0.560356,1.1322,True,385.0200,0.0000
1773666255.076916,357.2801,-1.0283,-0.3377,362.6527,0.0516,0.0088,1.1077,0.0098,363.4527,-2.5258,0.007448,0.432872,1.1077,True,385.5600,0.0000
1773666255.177351,357.3588,-1.2001,-0.3384,362.8156,0.1409,-0.0033,1.1752,-0.0039,363.4527,-2.5258,-0.007398,0.687698,1.1752,True,386.2200,0.0000
1773666255.276508,355.2906,-1.1803,-0.3851,362.8251,0.0582,-0.0029,1.0334,-0.0030,358.2921,-0.4879,-0.004482,0.524253,1.0335,True,386.8200,0.0000
1773666255.376753,355.3394,-1.3487,-0.3852,362.8786,0.0335,0.0016,1.4255,0.0023,358.2921,-0.4879,-0.009591,0.498863,1.4255,True,387.4200,0.0000
1773666255.477171,355.7029,-1.7350,-0.3890,363.1245,0.0168,-0.0072,1.4466,-0.0104,362.7684,-1.8030,-0.006710,0.461618,1.4466,True,388.0200,0.0000
1773666255.577077,355.7576,-1.9297,-0.3896,363.1832,0.0578,-0.0019,1.2545,-0.0024,362.7684,-1.8030,-0.007462,0.295005,1.2545,True,388.6200,0.0000
1773666255.676690,357.2268,-1.4201,-0.2437,363.3835,0.0385,0.0095,1.4580,0.0138,365.8688,-1.2672,-0.004887,0.582547,1.4580,True,389.2200,0.0000
1773666255.777572,357.3764,-1.5021,-0.2446,363.5324,0.0967,-0.0061,1.3548,-0.0082,365.8688,-1.2672,-0.010161,0.569976,1.3548,True,389.8200,0.0000
1773666255.876672,356.8728,-1.2036,-0.2272,363.6051,0.0979,-0.0102,1.5150,-0.0155,362.2349,-0.6980,-0.007810,0.580532,1.5151,True,390.4200,0.0000
1773666255.977308,357.0436,-1.2674,-0.2271,363.8033,0.1162,0.0013,1.4908,0.0020,362.2349,-0.6980,0.004060,0.601661,1.4908,True,391.0200,0.0000
1773666256.077328,358.5634,0.0028,-0.0717,363.9526,-0.0024,0.0018,1.4644,0.0027,367.1549,0.8526,-0.001018,0.564774,1.4644,True,391.6200,0.0000
1773666256.176578,358.6967,0.0828,-0.0717,364.1499,0.0279,-0.0000,1.5328,-0.0001,367.1549,0.8526,-0.003266,0.554439,1.5328,True,392.2200,0.0000
1773666256.276828,358.6587,-0.8458,-0.2114,364.1670,-0.0309,-0.0027,1.8484,-0.0049,364.7715,-1.6492,0.001606,0.525611,1.8484,True,392.8200,0.0000
1773666256.377090,358.8297,-0.8759,-0.2119,364.4408,0.0870,-0.0123,1.7806,-0.0219,364.7715,-1.6492,-0.000129,0.459192,1.7807,True,393.4200,0.0000
1773666256.477488,359.0242,-1.2249,-0.2490,364.6573,0.0226,0.0025,1.7255,0.0042,365.5525,-1.4867,-0.003378,0.488466,1.7255,True,394.0200,0.0000
1773666256.577453,359.2122,-1.2914,-0.2487,364.8523,-0.0092,0.0069,1.9237,0.0132,365.5525,-1.4867,-0.003787,0.505111,1.9238,True,394.6200,0.0000
1773666256.677353,358.7788,-1.1172,-0.2359,364.9917,0.0337,0.0024,1.9995,0.0048,364.0563,-0.7611,-0.002272,0.435069,1.9995,True,395.2200,0.0000
1773666256.776884,358.8915,-1.1504,-0.2361,365.2507,-0.0069,-0.0025,1.7667,-0.0045,364.0563,-0.7611,0.002646,0.579080,1.7667,True,395.7000,0.0000
1773666256.876758,359.3948,-1.5304,-0.2712,365.3601,0.0568,-0.0065,1.9766,-0.0129,366.4540,-1.8185,-0.018943,0.525778,1.9766,True,396.4200,0.0000
1773666256.976727,359.5879,-1.6202,-0.2719,365.6593,0.0476,0.0052,2.1550,0.0111,366.4540,-1.8185,0.009322,0.654932,2.1550,True,397.0200,0.0000
1773666257.077091,360.7068,-1.2075,-0.1752,365.7903,-0.0108,-0.0078,2.1282,-0.0166,368.5221,-1.0093,-0.004490,0.459907,2.1282,True,397.6200,0.0000
1773666257.176316,360.8715,-1.2106,-0.1740,366.1607,0.0858,-0.0102,2.1500,-0.0220,368.5221,-1.0093,-0.009312,0.636921,2.1501,True,398.2200,0.0000
1773666257.277526,361.1852,-0.8719,-0.1349,366.2600,0.0514,-0.0035,2.2403,-0.0078,367.6051,-0.6070,-0.006199,0.659386,2.2403,True,398.8200,0.0000
1773666257.377289,361.4104,-0.8454,-0.1347,366.5932,0.0395,-0.0070,2.1780,-0.0153,367.6051,-0.6070,-0.005321,0.735443,2.1781,True,399.4200,0.0000
1773666257.477149,361.0672,-0.7513,-0.1387,366.7669,0.0416,-0.0058,2.4602,-0.0144,366.3495,-0.6390,-0.001816,0.698201,2.4602,True,400.0200,0.0000
1773666257.577077,361.3251,-0.7331,-0.1389,367.0123,0.0262,0.0080,2.5190,0.0201,366.3495,-0.6390,0.004920,0.442465,2.5191,True,400.6200,0.0000
1773666257.677327,361.6628,-0.7961,-0.1500,367.2107,-0.0252,0.0079,2.5009,0.0197,368.1612,-0.9100,0.000026,0.307420,2.5010,True,401.2200,0.0000
1773666257.776545,361.8690,-0.7882,-0.1498,367.4133,-0.0479,-0.0039,2.4713,-0.0097,368.1612,-0.9100,-0.002332,0.515937,2.4713,True,401.8200,0.0000
1773666257.876945,360.8089,-0.0011,-0.0645,367.6902,0.0725,-0.0098,2.7071,-0.0265,364.5960,0.6736,-0.000828,0.458959,2.7072,True,402.4200,0.0000
1773666257.976950,361.0593,0.0785,-0.0653,368.0255,0.0447,-0.0062,2.4173,-0.0150,364.5960,0.6736,-0.006189,0.457328,2.4174,True,403.0200,0.0000
1773666258.076680,362.0728,-0.2312,-0.1155,368.1916,0.0735,0.0079,2.7282,0.0214,369.9117,-0.6216,-0.004994,0.422365,2.7283,True,403.6200,0.0000
1773666258.177192,362.4057,-0.1900,-0.1158,368.4290,0.0863,0.0033,2.7504,0.0091,369.9117,-0.6216,-0.004675,0.418831,2.7504,True,404.2200,0.0000
1773666258.277252,362.9861,0.2482,-0.0639,368.7640,0.0523,-0.0031,2.7796,-0.0085,369.8145,0.4426,0.008000,0.423109,2.7796,True,404.8200,0.0000
1773666258.376517,363.2068,0.3121,-0.0638,369.0237,0.0251,0.0035,2.6392,0.0093,369.8145,0.4426,-0.002009,0.558910,2.6392,True,405.4200,0.0000
1773666258.476478,363.3559,2.2764,0.0864,369.3935,0.0992,-0.0057,2.8180,-0.0159,369.4670,4.0809,0.000604,0.648873,2.8180,True,406.0200,0.0000
1773666258.576915,363.6828,2.5320,0.0863,369.6319,0.0178,-0.0074,2.9687,-0.0220,369.4670,4.0809,-0.004360,0.664954,2.9688,True,406.6200,0.0000
1773666258.677325,362.3726,0.0097,-0.1895,369.9675,0.0469,-0.0032,2.7411,-0.0089,365.8053,-2.7701,0.012078,0.533093,2.7411,True,407.2200,0.0000
1773666258.776982,362.6780,-0.0017,-0.1868,370.2877,0.0226,-0.0064,3.0281,-0.0195,365.8053,-2.7701,-0.006164,0.573537,3.0282,True,407.8200,0.0000
1773666258.876249,363.3094,-0.0409,-0.1848,370.5545,-0.0023,0.0025,3.2285,0.0082,370.3425,-0.1116,-0.002852,0.428056,3.2285,True,408.4200,0.0000
1773666258.976857,363.7034,-0.0644,-0.1851,370.8847,0.0322,0.0057,3.3013,0.0187,370.3425,-0.1116,-0.002660,0.374738,3.3013,True,409.0200,0.0000
1773666259.077009,364.6991,-1.3589,-0.2960,371.0906,0.0627,-0.0013,3.1137,-0.0039,372.3592,-2.7722,0.008955,0.297092,3.1137,True,409.6200,0.0000
1773666259.176790,364.9404,-1.4452,-0.2961,371.5081,0.0388,-0.0070,3.1126,-0.0218,372.3592,-2.7722,-0.002990,0.497811,3.1127,True,410.2200,0.0000
1773666259.276744,366.6070,-2.5486,-0.3706,371.7691,0.0787,-0.0028,3.4197,-0.0094,375.3831,-3.5845,-0.005044,0.466940,3.4197,True,410.8200,0.0000
1773666259.376946,366.8984,-2.7205,-0.3695,372.1828,0.0438,0.0046,3.5005,0.0161,375.3831,-3.5845,-0.004766,0.484623,3.5006,True,411.4200,0.0000
1773666259.476295,367.0540,-1.6429,-0.2944,372.4673,0.0735,-0.0039,3.4073,-0.0134,373.0854,-0.0707,0.002469,0.450092,3.4073,True,412.0200,0.0000
1773666259.576627,367.3796,-1.7532,-0.2934,372.8180,0.1066,-0.0050,3.5715,-0.0178,373.0854,-0.0707,0.001034,0.466210,3.5716,True,412.6200,0.0000
1773666259.676474,368.9253,-1.0767,-0.2383,373.1146,0.0194,-0.0050,3.4246,-0.0172,377.3111,-0.2323,0.006110,0.496855,3.4247,True,413.2200,0.0000
1773666259.776554,369.2682,-1.1406,-0.2392,373.4331,0.0516,-0.0010,3.4297,-0.0035,377.3111,-0.2323,-0.005103,0.394399,3.4297,True,413.8200,0.0000
1773666259.877028,368.6522,-0.4604,-0.1996,373.8598,0.0376,0.0039,3.5110,0.0136,373.0034,0.5299,0.000831,0.578931,3.5110,True,414.4200,0.0000
1773666259.977089,368.9937,-0.4807,-0.2000,374.2219,0.0147,-0.0039,3.3911,-0.0133,373.0034,0.5299,-0.009487,0.743843,3.3911,True,415.0200,0.0000
1773666260.077000,370.1157,0.5583,-0.0516,374.5813,0.0506,-0.0003,3.6686,-0.0013,377.4715,1.1638,-0.000390,0.659455,3.6686,True,415.6200,0.0000
1773666260.176462,370.4172,0.6481,-0.0521,374.9514,0.0721,0.0048,3.5852,0.0171,377.4715,1.1638,-0.006411,0.467101,3.5853,True,416.2200,0.0000
1773666260.276291,370.7099,-0.2593,-0.1847,375.3662,0.0230,-0.0039,3.7510,-0.0146,376.9845,-1.1849,0.002301,0.660414,3.7510,True,416.8200,0.0000
1773666260.376534,371.0950,-0.2638,-0.1847,375.7226,-0.0352,0.0043,3.9143,0.0168,376.9845,-1.1849,-0.008992,0.593731,3.9143,True,417.4200,0.0000
1773666260.476464,371.7343,-0.7222,-0.2312,376.1600,-0.0088,-0.0024,3.8628,-0.0092,378.5357,-1.2008,-0.008777,0.597345,3.8628,True,418.0200,0.0000
1773666260.577146,372.2083,-0.7777,-0.2308,376.4843,0.1317,-0.0036,4.0646,-0.0147,378.5357,-1.2008,0.004645,0.583487,4.0646,True,418.6200,0.0000
1773666260.677176,371.4658,0.9317,-0.1336,376.9237,0.0202,-0.0039,3.8605,-0.0152,375.7223,3.0781,-0.009873,0.546531,3.8605,True,419.2200,0.0000
1773666260.776774,371.8739,0.9694,-0.1342,377.3658,0.0276,0.0008,4.1262,0.0031,375.7223,3.0781,-0.001094,0.656729,4.1262,True,419.8200,0.0000
1773666260.885807,371.8435,1.9312,-0.0692,377.6835,0.1367,0.0031,4.0499,0.0124,377.3937,2.9650,-0.007701,0.602704,4.0499,True,420.1800,0.0000
1773666260.981302,372.3111,2.0263,-0.0699,378.0819,0.0012,0.0039,4.2196,0.0164,377.3937,2.9650,0.002374,0.524458,4.2197,True,421.0200,0.0000
1773666261.077953,372.6450,-0.6753,-0.3577,378.5057,0.0634,-0.0010,4.4195,-0.0043,378.9974,-3.8326,-0.002327,0.421787,4.4195,True,421.4400,0.0000
1773666261.176779,373.0507,-0.7835,-0.3509,378.8055,0.0739,-0.0049,4.1995,-0.0205,378.9974,-3.8326,-0.008036,0.416460,4.1995,True,422.0400,0.0000
1773666261.277102,373.0507,-0.7835,-0.3509,378.8055,0.0739,-0.0049,4.1995,-0.0205,378.9974,-3.8326,-0.008036,0.416460,4.1995,True,422.1600,0.0000
1773666261.389940,374.6537,-0.5966,-0.2968,379.6418,0.0980,0.0019,4.5117,0.0086,382.0268,-0.1316,0.002048,0.542777,4.5117,True,422.8800,0.0000
1773666261.478910,374.2888,-0.3306,-0.2823,380.0546,0.0308,0.0063,4.3338,0.0272,379.6291,0.1460,-0.000482,0.425803,4.3339,True,423.2400,0.0000
1773666261.580463,374.6995,-0.4020,-0.2832,380.4788,0.0658,0.0033,4.4217,0.0147,379.6291,0.1460,0.010974,0.399074,4.4217,True,423.8400,0.0000
1773666261.678524,374.3079,-1.3067,-0.4220,380.8774,-0.0082,0.0039,4.5238,0.0176,378.8644,-1.7661,-0.003902,0.519814,4.5239,True,424.8000,0.0000
1773666261.776526,374.7475,-1.5006,-0.4222,381.3056,-0.0303,0.0009,4.6007,0.0043,378.8644,-1.7661,-0.001685,0.475572,4.6007,True,425.5200,0.0000
1773666261.880816,374.3135,-0.0779,-0.2884,381.7936,0.0445,-0.0005,4.3849,-0.0022,378.6780,1.9129,-0.003507,0.343586,4.3849,True,426.1200,0.0000
1773666261.977000,374.7015,-0.1438,-0.2855,382.3642,0.0655,-0.0063,4.7037,-0.0295,378.6780,1.9129,-0.000126,0.523120,4.7038,True,426.6600,0.0000
1773666262.076557,376.4926,1.2346,-0.1138,382.7582,0.0532,0.0088,4.5678,0.0404,384.8267,2.5993,-0.006032,0.380523,4.5680,True,427.2600,0.0000
1773666262.176974,377.0739,1.3042,-0.1123,383.2276,-0.0112,0.0073,4.7470,0.0346,384.8267,2.5993,0.001586,0.481757,4.7472,True,427.8600,0.0000
1773666262.276257,377.2270,0.8187,-0.1653,383.5866,0.0182,-0.0021,4.6378,-0.0098,383.1155,0.1650,-0.007221,0.548628,4.6378,True,428.4600,0.0000
1773666262.383445,377.7248,0.8272,-0.1659,384.1603,-0.0353,0.0005,5.0006,0.0024,383.1155,0.1650,-0.001921,0.586168,5.0006,True,429.0600,0.0000
1773666262.477035,378.4500,0.7445,-0.1740,384.6792,0.0883,0.0095,5.0448,0.0481,384.9218,0.6002,-0.005598,0.516504,5.0450,True,429.6600,0.0000
1773666262.578746,378.8485,0.7463,-0.1745,385.1514,0.0562,0.0045,5.0224,0.0225,384.9218,0.6002,-0.002003,0.411608,5.0224,True,430.2600,0.0000
1773666262.677131,379.6095,0.5727,-0.1899,385.5645,0.0032,0.0030,5.0500,0.0152,386.0427,0.3377,0.000791,0.501760,5.0500,True,430.8600,0.0000
1773666262.776909,380.1259,0.5587,-0.1900,386.1973,0.1015,0.0003,5.1818,0.0018,386.0427,0.3377,-0.002319,0.431947,5.1818,True,431.4600,0.0000
1773666262.876442,380.1977,0.5474,-0.1974,386.6531,0.0987,-0.0056,5.0629,-0.0286,385.8065,0.5749,-0.001435,0.415394,5.0630,True,432.0600,0.0000
1773666262.976313,380.7156,0.5275,-0.1973,387.1521,0.0600,-0.0015,5.2679,-0.0079,385.8065,0.5749,0.006202,0.660197,5.2679,True,432.6600,0.0000
1773666263.076510,380.0959,0.2109,-0.2626,387.7322,0.0400,-0.0022,5.3615,-0.0120,384.3010,0.1792,-0.000924,0.540973,5.3615,True,433.2600,0.0000
1773666263.176493,380.6270,0.1303,-0.2630,388.2067,0.1022,-0.0044,5.5359,-0.0245,384.3010,0.1792,-0.006782,0.532351,5.5360,True,433.8600,0.0000
1773666263.278576,381.3015,0.5641,-0.2012,388.7004,0.0435,0.0001,5.2687,0.0003,387.6816,1.0019,0.003234,0.350718,5.2687,True,434.4600,0.0000
1773666263.376495,381.8215,0.5384,-0.2004,389.2849,0.0323,-0.0045,5.2935,-0.0238,387.6816,1.0019,-0.001028,0.555371,5.2936,True,435.0600,0.0000
1773666263.477540,381.6123,-0.7016,-0.3311,389.8107,0.0907,-0.0014,5.4585,-0.0079,386.8265,-1.8090,0.003329,0.564922,5.4585,True,435.6000,0.0000
1773666263.580042,382.1392,-0.8560,-0.3362,390.3103,0.0225,0.0010,5.6280,0.0055,386.8265,-1.8090,-0.004762,0.599416,5.6280,True,436.2600,0.0000
1773666263.682693,383.3240,-1.2593,-0.3411,390.8108,0.0842,0.0026,5.5326,0.0145,390.6953,-1.5934,0.005536,0.561806,5.5326,True,436.8600,0.0000
1773666263.777023,383.9576,-1.4387,-0.3411,391.4847,0.0751,-0.0018,5.5217,-0.0099,390.6953,-1.5934,0.004213,0.433341,5.5217,True,437.4600,0.0000
1773666263.876286,384.7967,-1.2408,-0.2789,392.0109,0.1451,0.0071,5.5781,0.0396,391.4660,-0.9807,-0.000914,0.276738,5.5783,True,438.0600,0.0000
1773666263.978112,385.3099,-1.3371,-0.2787,392.5458,0.0441,-0.0014,5.5588,-0.0079,391.4660,-0.9807,0.005489,0.512284,5.5588,True,438.6600,0.0000
1773666264.076554,386.2531,-0.0167,-0.0944,393.0805,0.0664,-0.0021,5.6870,-0.0120,392.6861,1.2312,-0.011483,0.510898,5.6870,True,439.2600,0.0000
1773666264.177081,386.8116,0.0231,-0.0949,393.7480,0.0292,0.0044,5.8261,0.0254,392.6861,1.2312,0.019965,0.567629,5.8261,True,439.8600,0.0000
1773666264.276463,387.0944,-1.9172,-0.3481,394.2563,-0.0220,0.0108,5.7629,0.0621,393.1462,-3.6921,-0.002614,0.561285,5.7632,True,440.4600,0.0000
1773666264.379632,387.6683,-2.0754,-0.3481,394.8732,0.0571,-0.0007,5.9220,-0.0044,393.1462,-3.6921,-0.003552,0.521749,5.9220,True,441.0000,0.0000
1773666264.483548,388.6940,-0.2316,-0.1637,395.3326,0.1026,0.0028,5.8347,0.0164,395.1995,2.1320,0.003229,0.415647,5.8347,True,441.3600,0.0000
1773666264.579080,389.2375,-0.2041,-0.1436,395.7288,0.0898,-0.0016,5.9084,-0.0097,395.1995,2.1320,0.000038,0.381426,5.9084,True,441.6600,0.0000
1773666264.682565,390.9317,-0.5608,-0.1608,396.2752,0.0414,0.0004,5.9893,0.0026,398.9020,-1.1266,-0.003197,0.549831,5.9893,True,442.5000,0.0000
1773666264.784301,391.4642,-0.5744,-0.1609,396.8956,0.0339,0.0052,5.8830,0.0308,398.9020,-1.1266,-0.000230,0.595087,5.8831,True,443.1600,0.0000
1773666264.876599,393.2707,0.9071,0.0127,397.4943,-0.0209,0.0027,6.0859,0.0162,401.4818,2.3815,-0.001177,0.558290,6.0859,True,443.7000,0.0000
1773666264.977309,393.9989,1.0472,0.0125,398.0783,0.0377,0.0032,6.1507,0.0199,401.4818,2.3815,-0.007918,0.676829,6.1507,True,444.3000,0.0000
1773666265.076772,394.3771,0.0938,-0.0996,398.6237,0.1030,0.0043,6.1818,0.0267,400.2975,-1.1542,0.000056,0.633677,6.1818,True,444.8400,0.0000
1773666265.180935,395.0695,0.1254,-0.1000,399.2250,0.0040,-0.0105,6.2946,-0.0664,400.2975,-1.1542,-0.001272,0.521795,6.2950,True,445.3800,0.0000
1773666265.293863,395.1353,0.1284,-0.1000,399.2250,0.0040,-0.0105,6.2946,-0.0664,400.2975,-1.1542,0.000368,0.428162,6.2950,True,445.5600,0.0000
1773666265.383979,394.0661,-0.6157,-0.2091,399.5851,0.0029,-0.0030,6.2721,-0.0190,398.4494,-1.4080,0.008210,0.592428,6.2721,True,446.1000,0.0000
1773666265.522782,394.9504,-0.6909,-0.2093,399.9080,-0.0350,-0.0018,6.3101,-0.0111,398.4494,-1.4080,-0.001578,0.516777,6.3101,True,446.8800,0.0000
1773666265.656442,395.7150,-1.1085,-0.2477,400.2898,0.1105,0.0069,6.3250,0.0439,401.9575,-1.4619,0.006501,0.587310,6.3252,True,447.6600,0.0000
1773666265.678128,396.1019,-1.1615,-0.2487,401.1645,0.0875,0.0020,6.3055,0.0125,402.1291,0.1091,0.001958,0.616138,6.3055,True,447.8400,0.0000
1773666265.784639,397.3366,-0.5773,-0.1469,402.9693,0.1369,0.0030,6.5286,0.0195,402.1291,0.1091,-0.001060,0.593311,6.5287,True,448.6800,0.0000
1773666265.876451,398.3305,-0.3657,-0.1072,403.6920,0.0856,-0.0080,6.9225,-0.0552,405.1331,-0.2433,-0.001153,0.665139,6.9227,True,449.5200,0.0000
1773666265.976525,399.0041,-0.3425,-0.1033,404.3392,0.0160,0.0090,6.8027,0.0610,405.1331,-0.2433,0.007481,0.644143,6.8029,True,450.1200,0.0000
1773666266.076305,399.8690,-1.3169,-0.2551,404.9046,0.1074,0.0006,6.8421,0.0044,406.5082,-2.1961,-0.004400,0.486846,6.8421,True,450.6600,0.0000
1773666266.176877,400.5586,-1.4116,-0.2554,405.6263,-0.0231,0.0049,6.9324,0.0343,406.5082,-2.1961,-0.001683,0.329818,6.9325,True,451.2000,0.0000
1773666266.276440,400.0490,-1.2031,-0.2496,406.2750,0.0085,-0.0013,6.9894,-0.0088,404.0824,-0.6892,-0.004686,0.239901,6.9894,True,451.8600,0.0000
1773666266.379905,400.8594,-1.3068,-0.2495,406.9691,-0.0222,0.0085,6.8054,0.0576,404.0824,-0.6892,0.003813,0.329799,6.8056,True,452.4600,0.0000
1773666266.477327,402.3130,-1.7582,-0.2769,407.5985,0.1151,0.0014,6.7133,0.0096,409.7310,-2.1803,0.008417,0.469428,6.7133,True,453.0000,0.0000
1773666266.577758,402.9829,-1.8639,-0.2769,408.2468,0.0300,0.0034,6.7036,0.0226,409.7310,-2.1803,0.006873,0.687849,6.7036,True,453.6000,0.0000
1773666266.677399,403.9688,-0.0432,-0.0507,408.9101,0.1476,0.0013,7.0462,0.0090,410.0504,1.7204,0.004520,0.626303,7.0462,True,454.2000,0.0000
1773666266.778833,404.5345,0.0108,-0.0502,409.6930,-0.0036,0.0063,7.0033,0.0443,410.0504,1.7204,0.003197,0.562517,7.0035,True,454.8000,0.0000
1773666266.876668,405.3717,0.7956,0.0339,410.3139,0.0431,-0.0019,7.1410,-0.0138,411.7543,1.4264,-0.004787,0.552852,7.1410,True,455.4000,0.0000
1773666266.979753,406.0752,0.9245,0.0339,411.0523,0.0616,0.0082,7.1141,0.0582,411.7543,1.4264,-0.003586,0.645319,7.1144,True,456.0000,0.0000
1773666267.076459,406.7771,0.4643,-0.0563,411.8161,0.0500,0.0044,7.2246,0.0319,412.9301,-0.1535,-0.006150,0.533136,7.2246,True,456.6000,0.0000
1773666267.177191,407.6517,0.5400,-0.0563,412.5494,0.0186,-0.0004,7.2038,-0.0026,412.9301,-0.1535,-0.001099,0.536054,7.2038,True,457.2000,0.0000
1773666267.276645,406.7746,-0.7705,-0.3044,413.2433,0.0413,0.0046,7.4004,0.0338,410.1496,-1.7742,0.005644,0.499015,7.4005,True,457.7400,0.0000
1773666267.386661,407.5090,-0.8937,-0.3044,413.9503,0.0642,-0.0060,7.2737,-0.0437,410.1496,-1.7742,0.006696,0.427286,7.2738,True,458.2800,0.0000
1773666267.541281,407.6523,-0.9176,-0.3043,413.9503,0.0642,-0.0060,7.2737,-0.0437,410.1496,-1.7742,-0.000479,0.519965,7.2738,True,458.5200,0.0000
1773666267.582305,408.8902,-1.7881,-0.3901,415.3089,0.1262,-0.0010,7.6574,-0.0076,416.2943,-2.5502,-0.004444,0.552874,7.6574,True,458.9400,0.0000
1773666267.676955,409.2823,-1.0955,-0.3090,415.9120,-0.0239,0.0032,7.5259,0.0243,413.3960,0.3405,0.002460,0.405829,7.5259,True,459.9600,0.0000
1773666267.784206,410.0296,-1.2286,-0.3093,416.7306,-0.0200,-0.0034,7.5476,-0.0257,413.3960,0.3405,-0.000128,0.585284,7.5477,True,460.5600,0.0000
1773666267.877165,410.7089,0.5205,-0.1869,417.4415,0.0609,0.0019,7.6590,0.0142,415.8876,3.0360,0.003248,0.615448,7.6590,True,461.1600,0.0000
1773666267.977313,411.3316,0.4814,-0.1891,418.1995,0.0188,-0.0044,7.6925,-0.0339,415.8876,3.0360,0.002144,0.586315,7.6925,True,461.7600,0.0000
1773666268.076458,412.1790,1.1759,-0.1139,419.0635,0.1118,-0.0074,7.6556,-0.0565,418.2058,2.0071,0.004168,0.442114,7.6558,True,462.3600,0.0000
1773666268.176780,412.9641,1.1857,-0.1135,419.7638,0.0866,-0.0022,7.7345,-0.0174,418.2058,2.0071,-0.003654,0.319623,7.7345,True,462.9600,0.0000
1773666268.277178,413.8011,0.0282,-0.2621,420.6383,0.0727,0.0017,7.8844,0.0136,419.5791,-1.1235,-0.005811,0.638618,7.8844,True,463.5600,0.0000
1773666268.377260,414.5905,-0.0715,-0.2614,421.4155,0.0352,0.0051,7.9570,0.0406,419.5791,-1.1235,0.010176,0.658620,7.9571,True,464.1600,0.0000
1773666268.476529,415.0806,0.0817,-0.2340,422.1394,0.1063,0.0006,7.9415,0.0049,420.9383,0.3517,0.003449,0.329818,7.9415,True,464.7600,0.0000
1773666268.576474,415.8804,-0.0006,-0.2340,422.9210,-0.0070,0.0071,7.9999,0.0567,420.9383,0.3517,0.003396,0.621217,8.0001,True,465.3600,0.0000
1773666268.676739,415.6986,-0.6630,-0.3572,423.7984,-0.0428,0.0013,8.0744,0.0109,420.0242,-0.9096,0.000531,0.612125,8.0744,True,465.9600,0.0000
1773666268.776541,416.5013,-0.8417,-0.3574,424.6839,-0.0030,0.0016,8.1436,0.0129,420.0242,-0.9096,-0.000654,0.446620,8.1436,True,466.5600,0.0000
1773666268.888029,416.5013,-0.8417,-0.3574,424.6839,-0.0030,0.0016,8.1436,0.0129,420.0242,-0.9096,0.001873,0.504160,8.1436,True,466.5600,0.0000
1773666268.986708,418.8256,-1.4379,-0.3483,426.1321,0.0116,-0.0014,8.1587,-0.0111,427.6130,-2.1348,0.001762,0.229050,8.1588,True,467.2800,0.0000
1773666269.077207,420.8718,-2.1247,-0.3788,426.9006,0.0266,-0.0090,8.3801,-0.0758,427.3969,-2.3543,0.001432,0.007297,8.3805,True,468.3000,0.0000
1773666269.179290,421.5103,-2.2795,-0.3787,427.7691,-0.0250,0.0076,8.2401,0.0629,427.3969,-2.3543,0.000910,-0.016094,8.2403,True,468.9000,0.0000
1773666269.278272,423.1370,-0.9136,-0.1800,428.6020,0.0747,0.0045,8.2063,0.0367,430.1410,0.6251,0.003263,-0.146711,8.2063,True,469.5000,0.0000
1773666269.377751,423.7901,-0.9483,-0.1801,429.3526,0.1147,0.0113,8.1725,0.0927,430.1410,0.6251,-0.006580,-0.050585,8.1730,True,469.9800,0.0000
1773666269.477773,424.3891,-1.0186,-0.1909,430.2861,0.0083,-0.0020,8.2524,-0.0167,429.8344,-0.9561,-0.004184,-0.229541,8.2524,True,470.7000,0.0000
1773666269.578772,425.2088,-1.0725,-0.1914,430.9380,0.0833,-0.0023,8.1001,-0.0186,429.8344,-0.9561,-0.001808,-0.253327,8.1001,True,471.2400,0.0000
1773666269.682283,426.0665,-1.1328,-0.1914,431.8082,0.0220,-0.0026,8.1903,-0.0213,429.8344,-0.9561,-0.002451,-0.307631,8.1904,False,471.7800,0.0000
1773666269.777625,426.8527,-1.1831,-0.1917,432.5526,0.0232,-0.0031,8.0291,-0.0250,429.8344,-0.9561,0.001153,-0.131833,8.0291,False,472.4400,0.0000
1773666269.876685,427.6578,-1.2347,-0.1921,433.3918,-0.0536,0.0035,7.9837,0.0278,429.8344,-0.9561,0.003591,-0.037655,7.9838,False,472.9800,0.0000
1773666269.977117,428.4662,-1.2875,-0.1923,434.0752,-0.1116,-0.0042,8.0554,-0.0336,429.8344,-0.9561,0.006705,0.054335,8.0555,False,473.5800,0.0000
1773666270.076998,429.2670,-1.3384,-0.1924,434.9134,0.1163,-0.0055,8.0076,-0.0440,429.8344,-0.9561,0.008084,0.011759,8.0077,False,474.1800,0.0000
1773666270.176272,430.0745,-1.3902,-0.1926,435.6767,0.0558,-0.0025,7.9552,-0.0201,429.8344,-0.9561,-0.008780,-0.114432,7.9552,False,474.7800,0.0000
1773666270.276502,430.8886,-1.4460,-0.1930,436.4777,0.0645,0.0007,8.3122,0.0060,429.8344,-0.9561,-0.003140,0.051184,8.3122,False,475.3800,0.0000
1773666270.376684,431.7462,-1.5030,-0.1930,437.3350,0.1054,0.0063,8.0900,0.0513,429.8344,-0.9561,0.006993,-0.034727,8.0902,False,475.9800,0.0000
1773666270.477523,432.6846,-1.5647,-0.1929,438.1646,0.0762,-0.0047,8.0915,-0.0381,429.8344,-0.9561,-0.006076,-0.046629,8.0916,False,476.5800,0.0000
1773666270.576899,433.3457,-1.6084,-0.1932,438.9201,0.0439,0.0043,7.9881,0.0343,429.8344,-0.9561,0.000548,-0.177165,7.9882,False,477.1800,0.0000
1773666270.677375,434.3113,-1.6718,-0.1931,439.7402,0.1163,0.0109,8.0776,0.0878,429.8344,-0.9561,0.005869,0.092212,8.0781,False,477.7800,0.0000
1773666270.777416,435.1181,-1.7244,-0.1929,440.6245,0.1387,-0.0014,8.0973,-0.0114,429.8344,-0.9561,0.006258,-0.033671,8.0973,False,478.3800,0.0000
1773666270.876869,435.7632,-1.7668,-0.1930,441.4050,0.0468,-0.0059,8.1324,-0.0483,429.8344,-0.9561,-0.003060,0.010845,8.1326,False,478.9800,0.0000
1773666270.977416,436.7414,-1.8310,-0.1933,442.1783,0.0372,0.0042,8.0584,0.0337,429.8344,-0.9561,-0.003451,-0.135141,8.0584,False,479.5800,0.0000
1773666271.076581,437.3904,-1.8734,-0.1933,442.9216,0.0494,0.0035,8.0580,0.0278,429.8344,-0.9561,0.001404,-0.036343,8.0580,False,480.1800,0.0000
1773666271.177483,438.3686,-1.9392,-0.1932,443.7425,0.0205,-0.0070,8.1857,-0.0575,429.8344,-0.9561,0.002670,-0.084857,8.1859,False,480.7800,0.0000
1773666271.277163,439.1647,-1.9887,-0.1933,444.5654,0.0843,-0.0021,7.8889,-0.0166,429.8344,-0.9561,0.000900,-0.204567,7.8889,False,481.3800,0.0000
1773666271.377439,439.9625,-2.0398,-0.1932,445.2783,0.0114,-0.0003,7.8253,-0.0020,429.8344,-0.9561,-0.007514,-0.226891,7.8253,False,481.9800,0.0000
1773666271.476374,440.6082,-2.0811,-0.1935,446.1446,0.0234,-0.0057,7.9201,-0.0449,429.8344,-0.9561,-0.004180,-0.147160,7.9202,False,482.5800,0.0000
1773666271.577405,441.4116,-2.1329,-0.1937,446.9171,0.0697,0.0060,8.0811,0.0486,429.8344,-0.9561,-0.010049,0.058482,8.0813,False,483.1200,0.0000
1773666271.676474,442.2237,-2.1904,-0.1938,447.7105,0.0614,0.0003,7.9782,0.0027,429.8344,-0.9561,0.003492,-0.036876,7.9782,False,483.7200,0.0000
1773666271.781724,443.1116,-2.2498,-0.1939,448.3755,-0.0043,-0.0027,8.0628,-0.0218,429.8344,-0.9561,0.007409,0.011799,8.0629,False,484.2000,0.0000
1773666271.890117,443.7903,-2.2924,-0.1941,449.0609,-0.1192,0.0074,8.0111,0.0592,429.8344,-0.9561,0.005451,0.087648,8.0114,False,484.8000,0.0000
1773666271.976415,444.6378,-2.3488,-0.1938,449.7378,0.0509,0.0048,8.0028,0.0383,429.8344,-0.9561,0.012111,-0.068108,8.0029,False,485.2800,0.0000
1773666272.084776,445.4443,-2.4009,-0.1937,450.4104,0.0528,-0.0022,8.0131,-0.0179,429.8344,-0.9561,-0.005077,-0.069555,8.0131,False,485.8200,0.0000
1773666272.176492,446.2815,-2.4542,-0.1942,451.2552,0.0493,-0.0054,7.9146,-0.0425,429.8344,-0.9561,-0.009451,-0.045640,7.9147,False,486.4200,0.0000
1773666272.276586,447.0488,-2.5045,-0.1943,452.0903,0.0122,-0.0029,8.0150,-0.0234,429.8344,-0.9561,-0.001843,-0.026357,8.0150,False,487.0200,0.0000
1773666272.377464,448.0070,-2.5646,-0.1944,452.8081,0.0058,-0.0015,7.9301,-0.0121,429.8344,-0.9561,-0.002670,-0.098592,7.9301,False,487.6200,0.0000
1773666272.476524,448.6507,-2.6089,-0.1947,453.6065,0.1034,-0.0034,7.9644,-0.0267,429.8344,-0.9561,0.005606,0.074158,7.9644,False,488.2200,0.0000
1773666272.576283,449.4502,-2.6616,-0.1948,454.4650,0.0977,0.0031,8.0615,0.0247,429.8344,-0.9561,-0.008056,0.091065,8.0615,False,488.8200,0.0000
1773666272.676921,450.2708,-2.7110,-0.1949,455.1629,0.0408,0.0004,8.0263,0.0029,429.8344,-0.9561,-0.000832,-0.034205,8.0263,False,489.4200,0.0000
1773666272.777293,451.2299,-2.7736,-0.1953,455.9709,0.0142,0.0062,8.0310,0.0497,429.8344,-0.9561,-0.007997,-0.127391,8.0312,False,490.0200,0.0000
1773666272.876633,451.8886,-2.8188,-0.1954,456.8687,0.0613,-0.0049,8.1025,-0.0395,429.8344,-0.9561,-0.003782,-0.118047,8.1026,False,490.6200,0.0000
1773666272.988937,452.6959,-2.8711,-0.1957,457.7232,0.0086,-0.0058,7.9778,-0.0461,429.8344,-0.9561,-0.004608,-0.088021,7.9779,False,491.1000,0.0000
1773666273.085761,454.7240,1.4802,-0.2520,458.3721,-0.0041,-0.0061,7.9033,-0.0485,460.9372,1.4008,-0.002453,0.065335,7.9035,True,491.7600,0.0000
1773666273.177657,455.6783,1.5922,-0.2519,459.1152,-0.0151,-0.0017,7.9156,-0.0137,460.9372,1.4008,-0.007273,0.166199,7.9156,True,492.3000,0.0000
1773666273.277204,455.9610,1.4999,-0.2413,459.9402,0.0420,-0.0082,7.9909,-0.0655,461.2950,1.3316,0.001965,0.076298,7.9911,True,492.9600,0.0000
1773666273.377442,456.6419,1.5641,-0.2416,460.7822,-0.0237,-0.0028,7.9850,-0.0226,461.2950,1.3316,-0.005261,0.197714,7.9850,True,493.5600,0.0000
1773666273.477028,457.8127,0.7255,-0.2063,461.5785,0.0824,0.0021,7.8740,0.0168,464.0568,-0.0159,0.002419,0.033465,7.8740,True,494.1600,0.0000
1773666273.576669,458.4623,0.7011,-0.2063,462.4124,-0.0090,-0.0039,7.9495,-0.0308,464.0568,-0.0159,0.000841,-0.088206,7.9495,True,494.7600,0.0000
1773666273.676562,458.2231,-1.8427,-0.1126,463.1366,0.0813,-0.0031,8.2151,-0.0252,462.9714,-3.4133,0.000518,0.007074,8.2151,True,495.3600,0.0000
1773666273.776414,458.9936,-2.2025,-0.1125,463.9200,-0.0452,-0.0034,8.1230,-0.0277,462.9714,-3.4133,0.003186,0.060304,8.1231,True,495.9600,0.0000
1773666273.876572,459.6401,0.0377,-0.1932,464.7400,0.0067,0.0038,8.1563,0.0307,465.1902,1.9593,0.001301,-0.019308,8.1563,True,496.5600,0.0000
1773666273.989052,460.4544,-0.0017,-0.1935,465.5632,-0.0234,0.0023,7.6715,0.0177,465.1902,1.9593,-0.005751,-0.251049,7.6716,True,497.1000,0.0000
1773666274.086025,460.1504,-0.2943,-0.1805,466.1834,0.0456,-0.0081,7.7621,-0.0628,464.4531,-0.3176,0.008073,-0.122372,7.7623,True,497.5800,0.0000
1773666274.183900,460.8968,-0.3758,-0.1807,466.9555,-0.0609,-0.0036,7.9053,-0.0281,464.4531,-0.3176,-0.000430,0.005140,7.9054,True,498.0000,0.0000
1773666274.276499,461.2281,-0.8876,-0.1605,467.5763,-0.1020,-0.0021,7.9409,-0.0171,466.4205,-1.0770,-0.002872,0.095909,7.9410,True,498.7200,0.0000
1773666274.376547,462.0363,-1.0386,-0.1602,468.4906,0.1190,0.0052,7.9427,0.0413,466.4205,-1.0770,-0.003480,0.101754,7.9428,True,499.3200,0.0000
1773666274.476668,461.2827,-2.0148,-0.1129,469.1058,0.0727,0.0024,7.8106,0.0190,464.9832,-2.2722,-0.011353,0.043349,7.8107,True,499.9200,0.0000
1773666274.578305,461.8925,-2.2326,-0.1130,469.9073,0.0918,0.0069,8.1041,0.0557,464.9832,-2.2722,0.001934,0.061298,8.1043,True,500.3400,0.0000
1773666274.677254,464.7573,-0.6107,-0.1981,470.5287,-0.0529,0.0030,7.7386,0.0235,473.9822,0.8108,0.006063,-0.124769,7.7387,True,500.8800,0.0000
1773666274.777597,465.7054,-0.6487,-0.1983,471.3042,0.0477,0.0008,7.9958,0.0060,473.9822,0.8108,-0.003102,-0.062605,7.9958,True,501.5400,0.0000
1773666274.878403,467.0307,0.3544,-0.2366,472.1618,0.0992,0.0007,8.0492,0.0058,473.5362,1.0445,-0.002578,-0.101141,8.0492,True,502.1400,0.0000
1773666274.976945,467.7001,0.4211,-0.2363,472.8960,0.0395,0.0003,7.9756,0.0022,473.5362,1.0445,-0.000494,0.047130,7.9756,True,502.7400,0.0000
1773666275.078410,469.3591,-0.8383,-0.1973,473.7199,0.0706,-0.0013,7.9489,-0.0100,476.9816,-2.2018,-0.000379,-0.131849,7.9490,True,503.3400,0.0000
1773666275.177402,470.1460,-0.8701,-0.1974,474.5459,-0.0283,-0.0036,7.8489,-0.0279,476.9816,-2.2018,0.003731,0.007613,7.8490,True,503.9400,0.0000
1773666275.276891,470.2089,0.3133,-0.2339,475.2366,0.0406,0.0037,8.0567,0.0300,474.6155,1.4651,-0.007888,0.085047,8.0568,True,504.5400,0.0000
1773666275.377262,471.2324,0.3915,-0.2345,476.0718,-0.0049,-0.0025,8.2586,-0.0207,474.6155,1.4651,-0.000902,-0.076290,8.2586,True,505.1400,0.0000
1773666275.476766,470.9559,0.5552,-0.2300,476.8296,0.1121,0.0028,7.6806,0.0213,475.2666,0.7623,0.001133,-0.100101,7.6807,True,505.7400,0.0000
1773666275.577286,471.9473,0.6249,-0.2301,477.7995,0.0678,0.0070,8.0515,0.0566,475.2666,0.7623,-0.003530,0.005439,8.0517,True,506.3400,0.0000
1773666275.676639,472.7796,-0.2320,-0.1927,478.4439,0.0934,-0.0022,8.0326,-0.0174,479.3881,-0.9962,0.004964,-0.065317,8.0326,True,506.9400,0.0000
1773666275.782412,473.7418,-0.2797,-0.1929,479.2424,0.0808,-0.0056,8.0820,-0.0453,479.3881,-0.9962,0.000887,-0.123882,8.0821,True,507.5400,0.0000
1773666275.878512,473.9975,-0.0613,-0.2010,480.0563,0.0122,-0.0038,8.0033,-0.0306,479.1991,0.2132,0.001606,-0.144155,8.0034,True,508.1400,0.0000
1773666275.977334,474.8413,-0.0808,-0.2009,480.7923,0.0733,0.0008,7.8338,0.0062,479.1991,0.2132,0.012595,-0.028266,7.8338,True,508.6200,0.0000
1773666276.077526,475.9758,0.1797,-0.2170,481.5135,0.0486,-0.0030,7.8130,-0.0236,482.3069,0.3256,-0.003502,-0.006896,7.8130,True,509.2200,0.0000
1773666276.177106,476.6608,0.1907,-0.2173,482.2834,0.0797,0.0111,7.8904,0.0877,482.3069,0.3256,-0.010875,-0.055267,7.8909,True,509.8200,0.0000
1773666276.276998,477.4893,2.0980,-0.3028,483.0982,0.0927,0.0095,7.9637,0.0755,482.6445,3.8302,-0.007586,0.146633,7.9641,True,510.4200,0.0000
1773666276.376560,478.1861,2.2328,-0.3027,483.8218,0.1216,-0.0005,7.7489,-0.0041,482.6445,3.8302,-0.005185,0.158805,7.7489,True,511.0200,0.0000
1773666276.476280,477.6043,-1.1552,-0.1448,484.6369,0.1126,0.0006,7.9606,0.0050,481.7525,-4.4373,0.003575,0.176728,7.9606,True,511.6200,0.0000
1773666276.577397,478.5436,-1.3500,-0.1452,485.4126,0.0788,0.0030,7.9336,0.0234,481.7525,-4.4373,-0.009990,-0.065210,7.9336,True,512.2200,0.0000
1773666276.676912,479.7640,-1.0270,-0.1585,486.2535,0.0021,0.0043,7.9314,0.0343,486.7318,-0.6018,-0.007657,-0.010190,7.9315,True,512.8200,0.0000
1773666276.776312,480.5557,-1.1393,-0.1590,486.9642,0.0033,-0.0004,8.0422,-0.0033,486.7318,-0.6018,0.007286,0.079393,8.0422,True,513.4200,0.0000
1773666276.879395,482.8010,-0.6415,-0.1691,487.8484,-0.0929,-0.0013,8.0583,-0.0104,491.2503,-0.3130,-0.004864,0.091722,8.0583,True,514.0200,0.0000
1773666276.976592,483.6086,-0.6662,-0.1692,488.6264,0.0178,0.0114,8.1692,0.0929,491.2503,-0.3130,0.002811,0.082318,8.1697,True,514.6200,0.0000
1773666277.076996,484.0043,-1.0570,-0.1682,489.4449,0.0469,-0.0041,7.9807,-0.0328,489.0225,-1.2393,-0.001074,-0.115151,7.9807,True,515.2200,0.0000
1773666277.176761,484.7989,-1.1294,-0.1682,490.2583,-0.0025,-0.0071,7.9675,-0.0562,489.0225,-1.2393,0.000506,0.094720,7.9677,True,515.8200,0.0000
1773666277.276947,484.7637,-3.1948,-0.1671,491.0083,0.0323,-0.0056,7.9734,-0.0446,489.4401,-4.5232,-0.012650,0.022001,7.9735,True,516.4200,0.0000
1773666277.378122,485.5251,-3.4969,-0.1674,491.8027,0.1073,-0.0033,8.1028,-0.0265,489.4401,-4.5232,-0.003235,0.133592,8.1028,True,517.0200,0.0000
1773666277.476901,486.7774,-2.3494,-0.1713,492.5730,0.0775,-0.0072,8.0148,-0.0577,493.2327,-1.1391,-0.000874,0.054739,8.0150,True,517.6200,0.0000
1773666277.576815,487.4115,-2.4576,-0.1714,493.4108,0.0837,-0.0033,7.8548,-0.0260,493.2327,-1.1391,-0.001516,-0.076510,7.8548,True,518.2200,0.0000
1773666277.677043,489.5782,-3.6197,-0.1716,494.1746,-0.0061,-0.0018,8.0208,-0.0148,497.7483,-4.4452,-0.005704,0.011426,8.0208,True,518.8200,0.0000
1773666277.777264,490.3431,-3.8394,-0.1718,494.9879,0.0015,-0.0065,7.9097,-0.0511,497.7483,-4.4452,-0.003245,-0.083881,7.9099,True,519.4200,0.0000
1773666277.877162,490.6715,-2.4704,-0.1790,495.8231,0.0236,-0.0001,8.0581,-0.0007,495.4181,-1.0986,0.003852,-0.041887,8.0581,True,520.0200,0.0000
1773666277.976498,491.4600,-2.5248,-0.1797,496.6653,0.1036,-0.0015,7.8758,-0.0122,495.4181,-1.0986,-0.008710,0.019585,7.8758,True,520.6200,0.0000
1773666278.077590,492.9855,-0.3302,-0.2042,497.4441,0.0462,-0.0021,7.9963,-0.0168,499.6136,1.1126,0.000658,0.112624,7.9963,True,521.2200,0.0000
1773666278.177446,493.8415,-0.1304,-0.2042,498.3186,0.0776,0.0046,8.0707,0.0369,499.6136,1.1126,-0.003511,0.093283,8.0708,True,521.8200,0.0000
1773666278.276656,494.1406,-0.3722,-0.1984,498.9735,0.1076,0.0008,8.0994,0.0061,499.4696,-0.7777,0.001378,-0.069751,8.0994,True,522.4200,0.0000
1773666278.377955,494.9827,-0.2258,-0.1988,499.8004,0.0660,-0.0044,7.9579,-0.0353,499.4696,-0.7777,0.006730,-0.018807,7.9580,True,522.9600,0.0000
1773666278.477176,495.5107,-0.2248,-0.1959,500.6309,0.0565,-0.0044,7.9287,-0.0347,500.6920,-0.3971,-0.002809,-0.108531,7.9288,True,523.6200,0.0000
1773666278.576269,496.1669,-0.1286,-0.1960,501.4174,0.0839,-0.0054,7.8070,-0.0418,500.6920,-0.3971,0.002050,0.176808,7.8071,True,524.2200,0.0000
1773666278.677506,498.3498,0.9874,-0.2131,502.2474,0.0715,0.0034,7.9713,0.0270,506.0087,1.3414,0.003165,0.122307,7.9713,True,524.8200,0.0000
1773666278.776923,499.0597,1.1784,-0.2135,502.9771,0.0173,0.0042,8.1274,0.0339,506.0087,1.3414,0.001406,-0.066016,8.1275,True,525.4200,0.0000
1773666278.877445,498.5214,-0.6181,-0.1891,503.8455,0.0644,-0.0001,7.9844,-0.0005,501.9629,-2.0198,0.000133,-0.186572,7.9844,True,526.0200,0.0000
1773666278.976687,499.1688,-0.6337,-0.1889,504.6077,0.0665,0.0074,8.1009,0.0596,501.9629,-2.0198,-0.006651,0.003239,8.1011,True,526.6200,0.0000
1773666279.076311,500.9433,0.6014,-0.2071,505.4265,0.0487,0.0054,8.1278,0.0437,508.3090,1.3186,-0.001732,-0.182047,8.1279,True,527.2200,0.0000
1773666279.176256,501.7911,0.7410,-0.2074,506.2323,0.0942,0.0009,7.9820,0.0070,508.3090,1.3186,-0.002735,-0.087822,7.9820,True,527.8200,0.0000
1773666279.276355,501.4680,2.3405,-0.2302,507.0487,-0.0071,0.0022,7.9541,0.0177,505.0199,3.6013,-0.004654,-0.110875,7.9541,True,528.4200,0.0000
1773666279.377038,502.3491,2.6031,-0.2304,507.8082,0.0729,0.0073,8.0659,0.0590,505.0199,3.6013,-0.001439,-0.160906,8.0661,True,529.0200,0.0000
1773666279.476554,501.9302,1.0741,-0.1448,508.6131,0.0576,-0.0036,7.9960,-0.0288,506.2863,-0.0674,0.001687,-0.170962,7.9960,True,529.6200,0.0000
1773666279.576774,502.7296,1.0969,-0.1452,509.3008,0.0587,-0.0085,7.9292,-0.0671,506.2863,-0.0674,0.001425,-0.417659,7.9295,True,530.2200,0.0000
1773666279.676491,504.5944,1.3962,-0.1670,510.1231,0.0472,-0.0106,7.9154,-0.0841,512.4062,1.3788,-0.000593,-0.575756,7.9159,True,530.8200,0.0000
1773666279.776715,505.3874,1.4696,-0.1669,511.0193,0.1112,-0.0013,7.7706,-0.0101,512.4062,1.3788,-0.008363,-0.475185,7.7706,True,531.4200,0.0000
1773666279.876427,506.5607,1.4034,-0.1583,511.7557,0.0343,0.0067,7.7796,0.0520,513.3714,1.1559,0.012397,-0.549062,7.7798,True,532.0200,0.0000
1773666279.977260,507.5043,1.4827,-0.1581,512.5346,0.0413,0.0035,7.5892,0.0266,513.3714,1.1559,0.006175,-0.694741,7.5892,True,532.6200,0.0000
1773666280.077300,508.2464,0.1156,-0.0257,513.3251,0.0891,0.0044,7.6946,0.0342,514.2090,-1.2818,-0.001951,-0.431927,7.6946,True,533.2200,0.0000
1773666280.176796,509.0116,0.0575,-0.0258,514.0548,0.0511,0.0101,7.6768,0.0773,514.2090,-1.2818,0.000736,-0.582400,7.6772,True,533.8200,0.0000
